* Measurement data measured by REW V5.31.1
* Source: Microphone (USB Sound Device        ), MICROPHONE (Master Volume), L, volume: 0.250
* Format: 256k Log Swept Sine, 1 sweep at -20.0 dBFS with no timing reference
* Dated: Oct 31, 2024 7:03:04 PM
* REW Settings:
*  C-weighting compensation: Off
*  Target level: 75.0 dB
* Note: 
* Measurement: R E20 344
* Smoothing: None
* Frequency Step: 1/48 octave
* Start Frequency: 20.300 Hz
*
* Freq(Hz) SPL(dB) Phase(degrees)
20.299999 121.758 -155.2778
20.600000 121.782 -156.0141
20.900000 121.799 -156.6899
21.200001 121.815 -157.3688
21.400000 121.826 -157.8182
21.799999 121.850 -158.6958
22.000000 121.865 -159.1199
22.400000 121.904 -159.9412
22.700001 121.939 -160.5525
23.000000 121.975 -161.1832
23.299999 122.007 -161.8436
23.600000 122.029 -162.5247
24.000000 122.036 -163.4254
24.299999 122.026 -164.0538
24.700001 122.001 -164.7928
25.000000 121.984 -165.2800
25.400000 121.974 -165.8915
25.799999 121.980 -166.5379
26.200001 121.995 -167.2603
26.500000 122.006 -167.8347
26.900000 122.015 -168.5906
27.200001 122.019 -169.1136
27.600000 122.024 -169.7348
28.000000 122.033 -170.3009
28.500000 122.048 -171.0192
29.000000 122.055 -171.8081
29.500000 122.048 -172.6393
30.000000 122.033 -173.4579
30.400000 122.023 -174.0988
30.700001 122.019 -174.5814
31.100000 122.015 -175.2332
31.500000 122.010 -175.8790
32.000000 121.998 -176.6300
32.500000 121.983 -177.2889
33.000000 121.971 -177.8938
33.500000 121.962 -178.5098
34.000000 121.947 -179.1563
34.500000 121.927 -179.7938
35.000000 121.908 179.6060
35.500000 121.895 179.0142
36.000000 121.885 178.3786
36.500000 121.870 177.6931
37.000000 121.844 177.0092
37.500000 121.811 176.3781
38.200001 121.773 175.5782
38.700001 121.754 175.0139
39.500000 121.722 174.0870
40.000000 121.697 173.5386
40.599998 121.665 172.9445
41.200001 121.636 172.3783
41.799999 121.607 171.7816
42.500000 121.564 171.0541
43.099998 121.523 170.4488
43.700001 121.486 169.8453
44.400002 121.445 169.1172
45.000000 121.409 168.5247
45.500000 121.380 168.0818
46.200001 121.344 167.4712
46.799999 121.305 166.9083
47.500000 121.242 166.3044
48.200001 121.185 165.7917
48.700001 121.155 165.3834
49.400002 121.107 164.6962
50.000000 121.052 164.1402
50.799999 120.989 163.5512
51.500000 120.951 162.9968
52.200001 120.898 162.3902
53.000000 120.820 161.8394
53.799999 120.755 161.3245
54.500000 120.698 160.7682
55.200001 120.639 160.2403
56.000000 120.586 159.7111
57.000000 120.514 159.0171
58.000000 120.421 158.4028
59.000000 120.336 157.6905
60.000000 120.244 157.0171
60.799999 120.184 156.5977
61.500000 120.130 156.1952
62.200001 120.062 155.8160
63.000000 119.991 155.4373
64.000000 119.914 154.8551
65.000000 119.815 154.3138
66.000000 119.723 153.8921
67.000000 119.633 153.3966
68.000000 119.536 152.9579
69.000000 119.445 152.4647
70.000000 119.335 151.9240
71.000000 119.241 151.5872
72.000000 119.168 151.1645
73.000000 119.062 150.7077
74.000000 118.953 150.3071
75.000000 118.859 149.9424
76.199997 118.771 149.5806
77.500000 118.643 149.0544
78.800003 118.500 148.7244
80.000000 118.399 148.3952
81.199997 118.267 147.9870
82.500000 118.146 147.5510
83.800003 118.036 147.1220
85.000000 117.890 147.0416
86.199997 117.788 147.0348
87.500000 117.666 146.4698
88.500000 117.552 146.3535
90.000000 117.411 146.1613
91.199997 117.305 146.0171
92.500000 117.176 145.8051
93.800003 117.038 145.5891
95.000000 116.912 145.4796
96.199997 116.788 145.3906
97.500000 116.649 145.2617
98.800003 116.573 145.0816
100.000000 116.461 145.1259
101.500000 116.274 145.1680
103.000000 116.130 145.0542
104.400002 116.005 145.0827
106.000000 115.845 145.1937
107.500000 115.723 145.2740
109.000000 115.587 145.2121
110.599998 115.425 145.3105
112.000000 115.288 145.5137
113.800003 115.142 145.8335
115.000000 115.023 145.8503
117.199997 114.845 146.4625
118.000000 114.755 146.5197
120.599998 114.520 146.8448
122.000000 114.405 147.1332
124.099998 114.244 147.7117
125.000000 114.147 147.9343
126.500000 114.023 148.2904
128.000000 113.917 148.7188
131.500000 113.617 149.7249
132.000000 113.590 149.8190
134.000000 113.475 150.5842
136.000000 113.313 151.0712
138.000000 113.198 151.8635
140.000000 113.013 152.7943
143.000000 112.857 153.7881
145.000000 112.733 154.4971
147.500000 112.617 155.5362
150.000000 112.504 156.6098
152.500000 112.357 157.5556
155.000000 112.249 158.6906
157.500000 112.154 159.9329
160.000000 112.074 160.9089
162.500000 112.003 162.2104
165.000000 111.933 163.0366
167.500000 111.904 164.2608
170.000000 111.822 165.1902
172.500000 111.817 166.2979
175.000000 111.793 167.4448
177.500000 111.750 168.6630
180.000000 111.768 169.5803
182.500000 111.732 170.6755
185.000000 111.749 171.8622
187.500000 111.744 172.6484
190.000000 111.791 173.7490
192.500000 111.771 174.5733
195.000000 111.808 175.3182
197.500000 111.827 176.3902
200.000000 111.871 177.0792
203.000000 111.904 177.8626
206.000000 111.970 178.9985
209.000000 112.000 179.3141
212.000000 112.080 -179.4799
214.000000 112.111 -179.3278
218.000000 112.169 -178.2472
220.000000 112.200 -177.9118
224.000000 112.317 -176.9314
227.000000 112.371 -176.3955
230.000000 112.422 -175.8342
233.000000 112.480 -175.4097
236.000000 112.566 -175.1263
240.000000 112.625 -174.3412
243.000000 112.695 -173.9642
247.000000 112.765 -173.5809
250.000000 112.842 -173.2920
254.000000 112.888 -172.7218
258.000000 112.968 -172.4089
262.000000 113.017 -172.1550
265.000000 113.103 -172.0049
269.000000 113.163 -171.7110
272.000000 113.235 -171.4200
276.000000 113.275 -171.3098
280.000000 113.332 -170.9141
285.000000 113.406 -170.7134
290.000000 113.455 -170.7225
295.000000 113.526 -170.4658
300.000000 113.569 -170.2081
304.000000 113.626 -170.1366
307.000000 113.652 -169.9948
311.000000 113.685 -169.9897
315.000000 113.726 -170.0344
320.000000 113.758 -169.7126
325.000000 113.790 -169.7198
330.000000 113.849 -169.5947
335.000000 113.875 -169.5100
340.000000 113.899 -169.4817
345.000000 113.921 -169.3467
350.000000 113.943 -169.3057
355.000000 113.960 -169.3120
360.000000 114.008 -169.1564
365.000000 114.014 -168.9851
370.000000 114.043 -169.0134
375.000000 114.059 -169.0001
382.000000 114.067 -168.8099
387.000000 114.056 -168.7310
395.000000 114.092 -168.4851
400.000000 114.096 -168.5461
406.000000 114.104 -168.5812
412.000000 114.090 -168.1841
418.000000 114.105 -168.0442
425.000000 114.108 -168.0909
431.000000 114.084 -167.9170
437.000000 114.101 -167.9245
444.000000 114.093 -167.7081
450.000000 114.118 -167.6011
455.000000 114.096 -167.3972
462.000000 114.094 -167.1256
468.000000 114.074 -166.9172
475.000000 114.103 -166.9854
482.000000 114.083 -166.5431
487.000000 114.071 -166.4939
494.000000 114.103 -166.2458
500.000000 114.058 -166.0159
508.000000 114.043 -165.6491
515.000000 114.064 -165.5649
522.000000 114.040 -165.0393
530.000000 114.025 -164.8944
538.000000 114.043 -164.5294
545.000000 114.039 -164.2982
552.000000 114.041 -164.1194
560.000000 114.013 -163.7565
570.000000 113.992 -163.2535
580.000000 113.985 -162.6730
590.000000 113.997 -162.3453
600.000000 113.969 -161.8050
608.000000 113.987 -161.5653
615.000000 114.016 -161.1909
622.000000 113.996 -160.7614
630.000000 113.992 -160.5666
640.000000 113.963 -159.8013
650.000000 113.993 -159.3366
660.000000 114.004 -158.7432
670.000000 113.977 -158.2801
680.000000 113.998 -157.5786
690.000000 114.017 -157.1451
700.000000 114.015 -156.6070
710.000000 114.037 -155.9271
720.000000 114.062 -155.3413
730.000000 114.047 -154.6861
740.000000 114.090 -154.1970
750.000000 114.107 -153.4848
762.000000 114.138 -152.7918
775.000000 114.148 -151.8644
788.000000 114.219 -151.3272
800.000000 114.242 -150.6244
812.000000 114.302 -149.9702
825.000000 114.356 -149.2089
838.000000 114.400 -148.3232
850.000000 114.477 -147.4619
862.000000 114.540 -146.8112
875.000000 114.580 -146.2216
885.000000 114.679 -145.4295
900.000000 114.790 -144.7589
912.000000 114.852 -144.0346
925.000000 114.927 -143.3689
938.000000 115.033 -142.8431
950.000000 115.113 -142.2571
962.000000 115.194 -141.5756
975.000000 115.307 -141.1601
988.000000 115.402 -140.4331
1000.000000 115.467 -140.2782
1015.000000 115.621 -139.4615
1030.000000 115.748 -138.9291
1044.000000 115.893 -138.5447
1060.000000 115.984 -138.0948
1075.000000 116.142 -137.6861
1090.000000 116.256 -137.4227
1106.000000 116.389 -137.1786
1120.000000 116.516 -136.5530
1138.000000 116.659 -136.4899
1150.000000 116.768 -136.5228
1172.000000 116.934 -136.1406
1180.000000 116.992 -136.0950
1206.000000 117.175 -135.9472
1220.000000 117.279 -135.7230
1241.000000 117.436 -135.6959
1250.000000 117.485 -135.6019
1265.000000 117.556 -135.5163
1280.000000 117.674 -135.4650
1315.000000 117.897 -135.3591
1320.000000 117.915 -135.3303
1340.000000 118.027 -135.4279
1360.000000 118.159 -135.1031
1380.000000 118.266 -135.2729
1400.000000 118.371 -135.0833
1430.000000 118.550 -134.9289
1450.000000 118.642 -134.8994
1475.000000 118.781 -134.9491
1500.000000 118.921 -134.9190
1525.000000 119.076 -134.7597
1550.000000 119.142 -134.7252
1575.000000 119.310 -134.6201
1600.000000 119.433 -134.5975
1625.000000 119.563 -134.6531
1650.000000 119.704 -134.5836
1675.000000 119.850 -134.6111
1700.000000 119.965 -134.6344
1725.000000 120.101 -134.6486
1750.000000 120.225 -134.7725
1775.000000 120.371 -134.7202
1800.000000 120.502 -134.9522
1825.000000 120.646 -134.9859
1850.000000 120.803 -135.1446
1875.000000 120.936 -135.2810
1900.000000 121.048 -135.7615
1925.000000 121.190 -135.8937
1950.000000 121.318 -136.0510
1975.000000 121.469 -136.4196
2000.000000 121.622 -136.5864
2030.000000 121.744 -137.2618
2060.000000 121.909 -137.6913
2090.000000 122.075 -138.1895
2120.000000 122.210 -138.8399
2140.000000 122.299 -139.2275
2180.000000 122.493 -140.0165
2200.000000 122.591 -140.5919
2240.000000 122.774 -141.5096
2270.000000 122.889 -142.2521
2300.000000 123.002 -142.9932
2330.000000 123.112 -143.9406
2360.000000 123.210 -144.7778
2400.000000 123.340 -145.8895
2430.000000 123.417 -146.8040
2470.000000 123.530 -147.9854
2500.000000 123.594 -148.9201
2540.000000 123.683 -150.1807
2580.000000 123.746 -151.3367
2620.000000 123.792 -152.6632
2650.000000 123.831 -153.4674
2690.000000 123.865 -154.5878
2720.000000 123.885 -155.4518
2760.000000 123.892 -156.5227
2800.000000 123.884 -157.6876
2850.000000 123.892 -158.9792
2900.000000 123.887 -160.0730
2950.000000 123.847 -161.2243
3000.000000 123.832 -162.3321
3040.000000 123.799 -163.0962
3070.000000 123.773 -163.6476
3110.000000 123.751 -164.3149
3150.000000 123.720 -164.9904
3200.000000 123.673 -165.6900
3250.000000 123.611 -166.4011
3300.000000 123.594 -166.9953
3350.000000 123.549 -167.5984
3400.000000 123.555 -168.1625
3450.000000 123.518 -168.6223
3500.000000 123.494 -169.0235
3550.000000 123.464 -169.4662
3600.000000 123.481 -169.9235
3650.000000 123.462 -170.3251
3700.000000 123.464 -170.7026
3750.000000 123.478 -171.1302
3820.000000 123.479 -171.5709
3870.000000 123.518 -172.0815
3950.000000 123.551 -172.7499
4000.000000 123.605 -173.4417
4060.000000 123.632 -173.7329
4120.000000 123.668 -174.5129
4180.000000 123.709 -175.3699
4250.000000 123.764 -176.2526
4310.000000 123.816 -177.2364
4370.000000 123.835 -178.1491
4440.000000 123.866 -179.4611
4500.000000 123.890 179.4806
4550.000000 123.900 178.4791
4620.000000 123.914 177.1242
4680.000000 123.884 175.9024
4750.000000 123.863 174.3772
4820.000000 123.793 172.7705
4870.000000 123.742 171.6354
4940.000000 123.637 170.0062
5000.000000 123.482 168.5649
5080.000000 123.344 166.8926
5150.000000 123.168 165.3915
5220.000000 122.939 164.0010
5300.000000 122.674 162.7274
5380.000000 122.382 161.5858
5450.000000 122.125 160.9625
5520.000000 121.842 160.1984
5600.000000 121.518 159.8195
5700.000000 121.120 159.3001
5800.000000 120.707 159.2253
5900.000000 120.278 159.7523
6000.000000 119.910 160.3386
6080.000000 119.592 160.8671
6150.000000 119.387 161.8373
6220.000000 119.129 162.6546
6300.000000 118.883 163.7658
6400.000000 118.571 165.1972
6500.000000 118.296 166.6003
6600.000000 118.059 168.3507
6700.000000 117.824 170.2498
6800.000000 117.677 172.3641
6900.000000 117.529 174.2575
7000.000000 117.330 175.9491
7100.000000 117.349 178.6238
7200.000000 117.283 -179.9775
7300.000000 117.302 -177.8846
7400.000000 117.329 -175.8769
7500.000000 117.361 -173.7331
7620.000000 117.443 -171.7181
7750.000000 117.634 -169.3201
7880.000000 117.961 -166.9120
8000.000000 118.129 -166.2168
8120.000000 118.549 -164.4473
8250.000000 119.071 -163.9112
8380.000000 119.561 -163.8107
8500.000000 120.141 -164.5911
8620.000000 120.673 -166.6423
8750.000000 121.294 -170.3962
8850.000000 121.679 -174.4534
9000.000000 121.889 177.6284
9120.000000 121.852 171.0031
9250.000000 121.343 163.8253
9380.000000 120.632 158.3128
9500.000000 119.847 154.2333
9620.000000 118.975 152.2782
9750.000000 118.049 150.6300
9880.000000 117.166 151.3086
10000.000000 116.499 151.7523
10150.000000 115.637 153.0936
10300.000000 114.891 155.9984
10440.000000 114.442 158.5757
10600.000000 113.842 161.7474
10750.000000 113.574 165.4147
10900.000000 113.204 169.1647
11060.000000 112.857 173.1158
11200.000000 112.946 175.7626
11380.000000 112.906 179.5688
11500.000000 112.997 -177.5966
11720.000000 113.267 -173.0909
11800.000000 113.404 -172.5670
12060.000000 114.113 -170.2226
12200.000000 114.433 -169.5253
12410.000000 115.059 -171.1059
12500.000000 115.315 -172.1936
12650.000000 115.560 -175.5044
12800.000000 115.554 -178.7048
13150.000000 115.553 173.8954
13200.000000 115.462 172.5895
13400.000000 115.130 164.6837
13600.000000 113.892 159.5128
13800.000000 112.785 157.6774
14000.000000 111.824 156.4252
14300.000000 110.066 155.8400
14500.000000 109.109 156.8998
14750.000000 107.752 160.7427
15000.000000 106.453 164.3678
15250.000000 105.328 168.0467
15500.000000 104.577 171.3739
15750.000000 103.819 176.6526
16000.000000 103.118 -178.4195
16250.000000 103.076 -169.7129
16500.000000 102.683 -165.6487
16750.000000 102.242 -161.6214
17000.000000 101.984 -158.8385
17250.000000 101.865 -155.9363
17500.000000 101.472 -151.8215
17750.000000 101.622 -148.5711
18000.000000 101.646 -149.0433
18250.000000 101.432 -142.2966
18500.000000 101.136 -142.9706
18750.000000 100.881 -141.2312
19000.000000 100.823 -137.0408
19250.000000 100.415 -137.8671
19500.000000 99.148 -134.6738
19750.000000 98.050 -132.4776
