* Measurement data measured by REW V5.31.1
* Source: Microphone (USB Sound Device        ), MICROPHONE (Master Volume), L, volume: 0.250
* Format: 256k Log Swept Sine, 1 sweep at -20.0 dBFS with no timing reference
* Dated: Oct 3, 2024 6:16:29 PM
* REW Settings:
*  C-weighting compensation: Off
*  Target level: 75.0 dB
* Note: 
* Measurement: R Origin foam 246
* Smoothing: None
* Frequency Step: 1/48 octave
* Start Frequency: 20.300 Hz
*
* Freq(Hz) SPL(dB) Phase(degrees)
20.299999 128.471 12.6920
20.600000 128.471 12.0622
20.900000 128.464 11.5094
21.200001 128.459 10.9646
21.400000 128.458 10.5972
21.799999 128.458 9.8467
22.000000 128.460 9.4638
22.400000 128.463 8.6941
22.700001 128.463 8.1274
23.000000 128.461 7.5808
23.299999 128.458 7.0560
23.600000 128.454 6.5494
24.000000 128.447 5.8935
24.299999 128.441 5.4101
24.700001 128.432 4.7733
25.000000 128.427 4.3008
25.400000 128.420 3.6757
25.799999 128.415 3.0519
26.200001 128.409 2.4294
26.500000 128.402 1.9694
26.900000 128.389 1.3776
27.200001 128.377 0.9565
27.600000 128.360 0.4247
28.000000 128.346 -0.0897
28.500000 128.330 -0.7400
29.000000 128.314 -1.4083
29.500000 128.295 -2.0679
30.000000 128.274 -2.6921
30.400000 128.259 -3.1712
30.700001 128.247 -3.5281
31.100000 128.232 -4.0087
31.500000 128.213 -4.4911
32.000000 128.187 -5.0814
32.500000 128.161 -5.6521
33.000000 128.138 -6.2211
33.500000 128.117 -6.8019
34.000000 128.093 -7.3793
34.500000 128.067 -7.9261
35.000000 128.042 -8.4400
35.500000 128.020 -8.9462
36.000000 127.996 -9.4642
36.500000 127.969 -9.9854
37.000000 127.938 -10.4891
37.500000 127.908 -10.9701
38.200001 127.868 -11.6260
38.700001 127.840 -12.0888
39.500000 127.794 -12.8036
40.000000 127.765 -13.2393
40.599998 127.729 -13.7681
41.200001 127.691 -14.3010
41.799999 127.653 -14.8194
42.500000 127.612 -15.4019
43.099998 127.579 -15.8961
43.700001 127.544 -16.3792
44.400002 127.500 -16.9125
45.000000 127.462 -17.3639
45.500000 127.429 -17.7565
46.200001 127.376 -18.3054
46.799999 127.330 -18.7303
47.500000 127.286 -19.2009
48.200001 127.245 -19.7160
48.700001 127.211 -20.0912
49.400002 127.159 -20.5640
50.000000 127.121 -20.9499
50.799999 127.070 -21.5083
51.500000 127.017 -21.9692
52.200001 126.968 -22.3822
53.000000 126.916 -22.9034
53.799999 126.855 -23.4093
54.500000 126.809 -23.7756
55.200001 126.770 -24.1858
56.000000 126.706 -24.6876
57.000000 126.623 -25.1546
58.000000 126.565 -25.7286
59.000000 126.485 -26.3029
60.000000 126.416 -26.7159
60.799999 126.362 -27.1634
61.500000 126.302 -27.5664
62.200001 126.244 -27.8906
63.000000 126.191 -28.2399
64.000000 126.122 -28.7184
65.000000 126.040 -29.1672
66.000000 125.965 -29.6006
67.000000 125.896 -30.0794
68.000000 125.818 -30.5282
69.000000 125.740 -30.8787
70.000000 125.669 -31.2580
71.000000 125.594 -31.6706
72.000000 125.517 -32.0496
73.000000 125.440 -32.3896
74.000000 125.365 -32.7197
75.000000 125.292 -33.0663
76.199997 125.204 -33.4791
77.500000 125.102 -33.8968
78.800003 125.006 -34.2733
80.000000 124.917 -34.6479
81.199997 124.824 -34.9655
82.500000 124.728 -35.3510
83.800003 124.632 -35.7243
85.000000 124.524 -35.9644
86.199997 124.441 -36.1474
87.500000 124.356 -36.5744
88.500000 124.285 -36.8281
90.000000 124.165 -37.2077
91.199997 124.062 -37.2852
92.500000 123.972 -37.4920
93.800003 123.869 -37.7354
95.000000 123.792 -38.0152
96.199997 123.694 -38.1909
97.500000 123.603 -38.3130
98.800003 123.523 -38.5573
100.000000 123.424 -38.8551
101.500000 123.315 -38.9602
103.000000 123.194 -39.1452
104.400002 123.114 -39.3361
106.000000 123.004 -39.5310
107.500000 122.917 -39.6023
109.000000 122.807 -39.6947
110.599998 122.700 -39.8219
112.000000 122.587 -40.0195
113.800003 122.489 -40.0348
115.000000 122.401 -40.1798
117.199997 122.276 -40.0966
118.000000 122.239 -40.0882
120.599998 122.034 -40.1519
122.000000 121.963 -40.0252
124.099998 121.822 -40.0079
125.000000 121.760 -39.9321
126.500000 121.655 -39.8333
128.000000 121.582 -39.7222
131.500000 121.332 -39.6448
132.000000 121.299 -39.6288
134.000000 121.171 -39.4155
136.000000 121.062 -39.3671
138.000000 120.937 -39.2538
140.000000 120.834 -39.1904
143.000000 120.663 -39.0287
145.000000 120.565 -38.7691
147.500000 120.442 -38.3008
150.000000 120.292 -37.9659
152.500000 120.165 -37.6216
155.000000 120.031 -37.4930
157.500000 119.930 -37.2136
160.000000 119.829 -37.0324
162.500000 119.728 -36.5646
165.000000 119.626 -36.1628
167.500000 119.518 -35.7444
170.000000 119.414 -35.3158
172.500000 119.311 -34.9619
175.000000 119.224 -34.5664
177.500000 119.149 -34.0585
180.000000 119.056 -33.7095
182.500000 118.974 -33.3021
185.000000 118.879 -32.6968
187.500000 118.804 -32.5418
190.000000 118.788 -32.1871
192.500000 118.707 -31.2009
195.000000 118.586 -31.2392
197.500000 118.587 -30.8114
200.000000 118.462 -30.0352
203.000000 118.383 -29.7179
206.000000 118.376 -29.2317
209.000000 118.319 -28.7321
212.000000 118.246 -28.1888
214.000000 118.227 -27.8811
218.000000 118.140 -27.1879
220.000000 118.108 -26.9500
224.000000 118.048 -26.2225
227.000000 118.023 -25.9866
230.000000 117.953 -25.5832
233.000000 117.932 -25.3660
236.000000 117.892 -25.1372
240.000000 117.794 -25.3069
243.000000 117.586 -25.5551
247.000000 117.062 -22.6037
250.000000 117.316 -19.8215
254.000000 117.525 -19.4494
258.000000 117.603 -19.1987
262.000000 117.626 -18.9045
265.000000 117.641 -18.6195
269.000000 117.628 -18.2951
272.000000 117.594 -18.0561
276.000000 117.596 -17.2892
280.000000 117.626 -17.1182
285.000000 117.643 -16.8998
290.000000 117.633 -16.6279
295.000000 117.573 -16.0511
300.000000 117.559 -15.3333
304.000000 117.594 -14.9448
307.000000 117.590 -14.4836
311.000000 117.610 -14.3102
315.000000 117.659 -13.7756
320.000000 117.645 -14.1638
325.000000 117.574 -13.7218
330.000000 117.577 -13.2586
335.000000 117.566 -12.7887
340.000000 117.575 -12.4421
345.000000 117.557 -11.9218
350.000000 117.566 -11.7222
355.000000 117.581 -11.5171
360.000000 117.577 -11.2002
365.000000 117.569 -10.9877
370.000000 117.576 -10.4701
375.000000 117.570 -10.4567
382.000000 117.592 -10.1119
387.000000 117.573 -9.7480
395.000000 117.566 -9.4097
400.000000 117.581 -9.0858
406.000000 117.582 -8.9346
412.000000 117.566 -8.7910
418.000000 117.588 -8.4305
425.000000 117.582 -8.1331
431.000000 117.565 -7.9242
437.000000 117.551 -7.6870
444.000000 117.577 -7.4309
450.000000 117.569 -7.2656
455.000000 117.551 -7.1025
462.000000 117.547 -6.9108
468.000000 117.558 -6.6796
475.000000 117.557 -6.5104
482.000000 117.540 -6.0871
487.000000 117.535 -6.0612
494.000000 117.531 -5.8398
500.000000 117.517 -5.6827
508.000000 117.506 -5.3857
515.000000 117.511 -5.1565
522.000000 117.501 -5.1244
530.000000 117.509 -4.5469
538.000000 117.483 -4.4223
545.000000 117.480 -4.1596
552.000000 117.477 -3.9266
560.000000 117.463 -3.6588
570.000000 117.460 -3.3753
580.000000 117.447 -3.1339
590.000000 117.444 -2.8492
600.000000 117.459 -2.5057
608.000000 117.415 -2.3787
615.000000 117.404 -2.2004
622.000000 117.396 -1.9674
630.000000 117.378 -1.7886
640.000000 117.374 -1.2274
650.000000 117.362 -0.9775
660.000000 117.357 -0.5815
670.000000 117.367 -0.3879
680.000000 117.341 -0.1237
690.000000 117.332 0.3264
700.000000 117.335 0.7076
710.000000 117.349 1.0907
720.000000 117.325 1.3956
730.000000 117.330 1.6929
740.000000 117.314 1.9029
750.000000 117.313 2.3000
762.000000 117.293 2.7548
775.000000 117.313 3.2306
788.000000 117.299 3.7167
800.000000 117.298 4.2892
812.000000 117.299 4.7733
825.000000 117.311 5.1176
838.000000 117.329 5.5785
850.000000 117.345 6.1277
862.000000 117.355 6.5402
875.000000 117.384 7.0043
885.000000 117.413 7.5232
900.000000 117.433 8.0196
912.000000 117.474 8.5812
925.000000 117.504 9.0060
938.000000 117.548 9.5460
950.000000 117.598 9.9003
962.000000 117.602 10.2574
975.000000 117.677 10.7946
988.000000 117.732 10.9583
1000.000000 117.750 11.8439
1015.000000 117.832 11.8292
1030.000000 117.900 12.2599
1044.000000 117.966 12.6826
1060.000000 118.032 12.8442
1075.000000 118.100 13.0574
1090.000000 118.165 13.4487
1106.000000 118.219 13.5488
1120.000000 118.314 13.7200
1138.000000 118.377 14.0117
1150.000000 118.413 14.0914
1172.000000 118.504 14.2216
1180.000000 118.526 14.2951
1206.000000 118.638 14.3725
1220.000000 118.661 14.5459
1241.000000 118.737 14.6560
1250.000000 118.751 14.6583
1265.000000 118.810 14.7156
1280.000000 118.833 14.7206
1315.000000 118.933 14.8179
1320.000000 118.931 14.9171
1340.000000 118.962 15.0256
1360.000000 119.030 15.1425
1380.000000 119.042 15.2750
1400.000000 119.114 15.3179
1430.000000 119.172 15.5765
1450.000000 119.183 15.7417
1475.000000 119.242 16.0143
1500.000000 119.290 16.4317
1525.000000 119.310 16.4374
1550.000000 119.381 16.8224
1575.000000 119.475 17.0908
1600.000000 119.487 17.4374
1625.000000 119.572 17.6813
1650.000000 119.631 17.9397
1675.000000 119.698 18.3772
1700.000000 119.774 18.5867
1725.000000 119.827 18.8398
1750.000000 119.929 19.1982
1775.000000 120.005 19.5145
1800.000000 120.116 19.9181
1825.000000 120.184 20.3556
1850.000000 120.300 20.6811
1875.000000 120.405 20.8195
1900.000000 120.528 21.1677
1925.000000 120.628 21.4113
1950.000000 120.734 21.6537
1975.000000 120.867 21.8290
2000.000000 121.032 21.6901
2030.000000 121.168 22.1286
2060.000000 121.336 22.2294
2090.000000 121.505 22.3253
2120.000000 121.671 22.3314
2140.000000 121.794 22.2129
2180.000000 122.055 22.0821
2200.000000 122.169 21.9950
2240.000000 122.450 21.6500
2270.000000 122.632 21.1698
2300.000000 122.835 20.8506
2330.000000 123.031 20.2506
2360.000000 123.244 19.6094
2400.000000 123.505 18.6107
2430.000000 123.686 17.6559
2470.000000 123.932 16.3460
2500.000000 124.101 15.1848
2540.000000 124.302 13.4292
2580.000000 124.494 11.7546
2620.000000 124.656 9.6546
2650.000000 124.734 8.2744
2690.000000 124.829 6.1578
2720.000000 124.879 4.5859
2760.000000 124.901 2.4908
2800.000000 124.884 0.4234
2850.000000 124.827 -1.8590
2900.000000 124.739 -4.0604
2950.000000 124.618 -6.0206
3000.000000 124.484 -7.5825
3040.000000 124.356 -8.8917
3070.000000 124.271 -9.9527
3110.000000 124.139 -10.8705
3150.000000 124.031 -11.8511
3200.000000 123.852 -12.8957
3250.000000 123.685 -13.8235
3300.000000 123.525 -14.5950
3350.000000 123.370 -15.3499
3400.000000 123.224 -15.9943
3450.000000 123.068 -16.5515
3500.000000 122.943 -17.0229
3550.000000 122.781 -17.5016
3600.000000 122.632 -17.9057
3650.000000 122.481 -18.4428
3700.000000 122.325 -18.9522
3750.000000 122.154 -19.2603
3820.000000 121.914 -19.8058
3870.000000 121.713 -19.8737
3950.000000 121.348 -20.0762
4000.000000 121.087 -20.1202
4060.000000 120.781 -19.2812
4120.000000 120.454 -18.0909
4180.000000 120.166 -15.9999
4250.000000 119.924 -12.8842
4310.000000 119.887 -9.8136
4370.000000 120.043 -6.7353
4440.000000 120.345 -4.0695
4500.000000 120.708 -2.7394
4550.000000 121.020 -2.4150
4620.000000 121.416 -2.6842
4680.000000 121.715 -3.4718
4750.000000 121.933 -5.2536
4820.000000 122.051 -7.2363
4870.000000 122.090 -8.5943
4940.000000 122.047 -10.6392
5000.000000 121.921 -12.1875
5080.000000 121.678 -14.1626
5150.000000 121.368 -15.2496
5220.000000 121.012 -15.4374
5300.000000 120.603 -15.1718
5380.000000 120.206 -13.7482
5450.000000 119.946 -11.6034
5520.000000 119.751 -9.7871
5600.000000 119.678 -7.1445
5700.000000 119.748 -4.2918
5800.000000 119.898 -2.0528
5900.000000 120.117 -0.6739
6000.000000 120.333 0.5366
6080.000000 120.546 0.5748
6150.000000 120.626 0.7231
6220.000000 120.755 0.2335
6300.000000 120.830 -0.1688
6400.000000 120.933 -1.0949
6500.000000 120.869 -2.0126
6600.000000 120.782 -2.8850
6700.000000 120.619 -3.5982
6800.000000 120.394 -4.1381
6900.000000 120.139 -4.3181
7000.000000 119.938 -3.7989
7100.000000 119.671 -3.1845
7200.000000 119.479 -2.0388
7300.000000 119.296 -1.0013
7400.000000 119.158 0.5199
7500.000000 119.044 2.1908
7620.000000 118.930 4.1733
7750.000000 118.969 6.0779
7880.000000 119.108 8.0358
8000.000000 119.345 9.7266
8120.000000 119.565 9.6489
8250.000000 119.814 9.9942
8380.000000 120.069 8.9792
8500.000000 120.322 7.0558
8620.000000 120.447 5.1353
8750.000000 120.427 2.2464
8850.000000 120.339 -0.0861
9000.000000 120.081 -3.2036
9120.000000 119.748 -4.9975
9250.000000 119.332 -5.5387
9380.000000 118.918 -6.4133
9500.000000 118.600 -6.1026
9620.000000 118.214 -5.5641
9750.000000 118.058 -4.4124
9880.000000 117.877 -3.0633
10000.000000 117.864 -1.8669
10150.000000 117.784 0.2934
10300.000000 117.929 2.0352
10440.000000 118.093 3.2158
10600.000000 118.449 4.2482
10750.000000 118.780 4.2310
10900.000000 119.154 3.8496
11060.000000 119.480 2.2990
11200.000000 119.748 1.1234
11380.000000 119.920 -0.9449
11500.000000 120.005 -2.1666
11720.000000 120.242 -3.9795
11800.000000 120.330 -4.5798
12060.000000 120.497 -8.3379
12200.000000 120.537 -9.6672
12410.000000 120.510 -12.2473
12500.000000 120.460 -13.4458
12650.000000 120.396 -14.8940
12800.000000 120.296 -16.4111
13150.000000 119.948 -18.9469
13200.000000 119.863 -19.2761
13400.000000 119.735 -20.6460
13600.000000 119.637 -22.4955
13800.000000 119.507 -25.2282
14000.000000 119.221 -29.6207
14300.000000 118.086 -37.5664
14500.000000 116.791 -41.5516
14750.000000 114.787 -43.2452
15000.000000 112.857 -39.2845
15250.000000 110.832 -32.4190
15500.000000 109.308 -22.6378
15750.000000 108.100 -10.9430
16000.000000 107.296 2.8573
16250.000000 106.862 13.5963
16500.000000 107.528 25.3108
16750.000000 108.150 34.3041
17000.000000 108.305 42.3574
17250.000000 108.597 46.8370
17500.000000 108.979 53.6885
17750.000000 109.509 57.0997
18000.000000 109.813 61.9494
18250.000000 109.894 62.8091
18500.000000 109.519 62.2724
18750.000000 108.899 63.2876
19000.000000 107.873 67.7018
19250.000000 106.900 73.5565
19500.000000 106.259 79.0452
19750.000000 105.658 86.4230
