* Measurement data measured by REW V5.31.1
* Source: Microphone (USB Sound Device        ), MICROPHONE (Master Volume), L, volume: 0.250
* Format: 256k Log Swept Sine, 1 sweep at -20.0 dBFS with no timing reference
* Dated: Oct 3, 2024 6:01:47 PM
* REW Settings:
*  C-weighting compensation: Off
*  Target level: 75.0 dB
* Note: 
* Measurement: R Origin foam 242
* Smoothing: None
* Frequency Step: 1/48 octave
* Start Frequency: 20.300 Hz
*
* Freq(Hz) SPL(dB) Phase(degrees)
20.299999 125.123 15.2008
20.600000 125.126 14.5661
20.900000 125.126 13.9911
21.200001 125.126 13.4061
21.400000 125.128 13.0066
21.799999 125.132 12.1920
22.000000 125.134 11.7840
22.400000 125.137 10.9879
22.700001 125.138 10.4224
23.000000 125.139 9.8891
23.299999 125.140 9.3811
23.600000 125.140 8.8876
24.000000 125.140 8.2343
24.299999 125.139 7.7388
24.700001 125.135 7.0696
25.000000 125.131 6.5664
25.400000 125.124 5.9034
25.799999 125.117 5.2583
26.200001 125.109 4.6369
26.500000 125.102 4.1880
26.900000 125.093 3.6122
27.200001 125.085 3.1943
27.600000 125.074 2.6480
28.000000 125.063 2.1029
28.500000 125.049 1.4131
29.000000 125.032 0.7255
29.500000 125.013 0.0651
30.000000 124.996 -0.5590
30.400000 124.985 -1.0474
30.700001 124.978 -1.4187
31.100000 124.967 -1.9266
31.500000 124.952 -2.4412
32.000000 124.928 -3.0648
32.500000 124.902 -3.6434
33.000000 124.878 -4.1887
33.500000 124.858 -4.7318
34.000000 124.838 -5.2885
34.500000 124.817 -5.8504
35.000000 124.795 -6.4090
35.500000 124.773 -6.9626
36.000000 124.747 -7.5006
36.500000 124.718 -7.9995
37.000000 124.689 -8.4540
37.500000 124.663 -8.8984
38.200001 124.631 -9.5816
38.700001 124.604 -10.1050
39.500000 124.554 -10.8841
40.000000 124.525 -11.3168
40.599998 124.495 -11.8154
41.200001 124.466 -12.3189
41.799999 124.435 -12.8389
42.500000 124.394 -13.4613
43.099998 124.354 -13.9647
43.700001 124.315 -14.4186
44.400002 124.278 -14.9533
45.000000 124.246 -15.4608
45.500000 124.216 -15.8863
46.200001 124.172 -16.4357
46.799999 124.133 -16.8661
47.500000 124.082 -17.3213
48.200001 124.033 -17.7576
48.700001 124.003 -18.1242
49.400002 123.961 -18.7318
50.000000 123.926 -19.2379
50.799999 123.891 -19.8413
51.500000 123.850 -20.3578
52.200001 123.785 -20.7476
53.000000 123.723 -21.0318
53.799999 123.686 -21.4906
54.500000 123.637 -21.9961
55.200001 123.581 -22.3927
56.000000 123.531 -22.8412
57.000000 123.457 -23.4888
58.000000 123.386 -23.9969
59.000000 123.325 -24.5285
60.000000 123.252 -25.0471
60.799999 123.195 -25.4334
61.500000 123.149 -25.7751
62.200001 123.102 -26.1447
63.000000 123.040 -26.5796
64.000000 122.962 -27.0380
65.000000 122.899 -27.5017
66.000000 122.829 -27.9493
67.000000 122.758 -28.3271
68.000000 122.688 -28.7408
69.000000 122.614 -29.1796
70.000000 122.537 -29.6215
71.000000 122.468 -30.0378
72.000000 122.401 -30.4434
73.000000 122.321 -30.7618
74.000000 122.248 -31.0256
75.000000 122.185 -31.4800
76.199997 122.086 -31.9486
77.500000 122.005 -32.3341
78.800003 121.889 -32.7985
80.000000 121.816 -33.0594
81.199997 121.735 -33.5109
82.500000 121.637 -33.7708
83.800003 121.512 -33.9708
85.000000 121.436 -34.3210
86.199997 121.347 -34.9105
87.500000 121.265 -35.0675
88.500000 121.177 -35.2701
90.000000 121.073 -35.6236
91.199997 120.967 -35.7658
92.500000 120.921 -35.9426
93.800003 120.821 -36.5292
95.000000 120.735 -36.6858
96.199997 120.627 -36.7674
97.500000 120.572 -36.9362
98.800003 120.451 -37.5934
100.000000 120.303 -37.2482
101.500000 120.301 -37.4323
103.000000 120.138 -37.9500
104.400002 120.044 -37.7844
106.000000 119.945 -38.2459
107.500000 119.854 -38.2502
109.000000 119.739 -38.3187
110.599998 119.648 -38.4780
112.000000 119.568 -38.6740
113.800003 119.409 -38.6227
115.000000 119.356 -38.8222
117.199997 119.225 -38.8384
118.000000 119.140 -38.9072
120.599998 118.997 -38.8663
122.000000 118.909 -38.8055
124.099998 118.764 -38.9956
125.000000 118.710 -38.9504
126.500000 118.609 -38.7782
128.000000 118.522 -38.7904
131.500000 118.306 -38.7483
132.000000 118.275 -38.7428
134.000000 118.161 -38.6120
136.000000 118.042 -38.5672
138.000000 117.948 -38.4912
140.000000 117.826 -38.2759
143.000000 117.679 -38.1237
145.000000 117.549 -37.7860
147.500000 117.429 -37.6009
150.000000 117.297 -37.3970
152.500000 117.191 -37.0839
155.000000 117.062 -36.6479
157.500000 116.943 -36.5860
160.000000 116.834 -36.2470
162.500000 116.727 -35.8468
165.000000 116.638 -35.3893
167.500000 116.534 -35.2897
170.000000 116.432 -34.8082
172.500000 116.317 -34.4292
175.000000 116.249 -34.1831
177.500000 116.150 -33.7623
180.000000 116.098 -33.3738
182.500000 116.007 -32.6464
185.000000 115.944 -32.6570
187.500000 115.787 -31.4775
190.000000 115.814 -32.7297
192.500000 115.703 -30.1269
195.000000 115.631 -31.2262
197.500000 115.515 -30.4977
200.000000 115.497 -30.5041
203.000000 115.441 -28.6977
206.000000 115.397 -29.9475
209.000000 115.274 -28.6602
212.000000 115.259 -28.2288
214.000000 115.183 -27.8815
218.000000 115.138 -27.0579
220.000000 115.121 -27.1975
224.000000 115.045 -26.6673
227.000000 115.011 -26.4187
230.000000 114.967 -26.1172
233.000000 114.916 -26.1716
236.000000 114.856 -26.2256
240.000000 114.644 -27.1435
243.000000 114.199 -27.9332
247.000000 113.540 -21.5110
250.000000 114.069 -18.2157
254.000000 114.398 -18.1408
258.000000 114.506 -18.3133
262.000000 114.532 -18.1671
265.000000 114.544 -18.0239
269.000000 114.548 -17.5470
272.000000 114.549 -17.2028
276.000000 114.530 -17.2343
280.000000 114.539 -16.9917
285.000000 114.584 -16.2825
290.000000 114.583 -16.0330
295.000000 114.622 -15.0735
300.000000 114.539 -14.7952
304.000000 114.530 -14.3958
307.000000 114.582 -14.2749
311.000000 114.567 -13.7062
315.000000 114.646 -13.3501
320.000000 114.601 -14.5287
325.000000 114.480 -13.4979
330.000000 114.503 -13.1419
335.000000 114.502 -12.6699
340.000000 114.492 -12.3500
345.000000 114.496 -11.8156
350.000000 114.476 -11.5254
355.000000 114.494 -11.2768
360.000000 114.494 -11.0049
365.000000 114.485 -10.5131
370.000000 114.491 -10.6188
375.000000 114.515 -10.2108
382.000000 114.480 -9.8966
387.000000 114.525 -9.6231
395.000000 114.514 -9.2008
400.000000 114.479 -8.8428
406.000000 114.516 -8.5668
412.000000 114.489 -8.4480
418.000000 114.503 -7.9941
425.000000 114.530 -7.9110
431.000000 114.517 -7.9081
437.000000 114.529 -7.2551
444.000000 114.526 -7.2497
450.000000 114.546 -6.9289
455.000000 114.526 -6.8264
462.000000 114.513 -6.5040
468.000000 114.521 -6.4729
475.000000 114.486 -6.4149
482.000000 114.489 -6.0678
487.000000 114.446 -5.9799
494.000000 114.526 -5.9379
500.000000 114.516 -5.3351
508.000000 114.479 -5.4027
515.000000 114.464 -5.3479
522.000000 114.500 -4.9242
530.000000 114.469 -4.5008
538.000000 114.461 -4.5595
545.000000 114.456 -4.1108
552.000000 114.457 -4.0154
560.000000 114.416 -3.8873
570.000000 114.423 -3.5657
580.000000 114.399 -3.2429
590.000000 114.384 -3.2061
600.000000 114.351 -2.9295
608.000000 114.331 -2.7545
615.000000 114.325 -2.6416
622.000000 114.361 -2.2947
630.000000 114.299 -1.8463
640.000000 114.319 -1.5506
650.000000 114.287 -1.2972
660.000000 114.267 -0.9407
670.000000 114.229 -0.8131
680.000000 114.201 -0.3576
690.000000 114.215 -0.2626
700.000000 114.212 0.3709
710.000000 114.230 0.7143
720.000000 114.166 0.8923
730.000000 114.174 1.4092
740.000000 114.220 1.6943
750.000000 114.191 2.2521
762.000000 114.109 2.5716
775.000000 114.158 3.2847
788.000000 114.146 3.6663
800.000000 114.161 4.2002
812.000000 114.151 4.6612
825.000000 114.147 5.1438
838.000000 114.138 5.8019
850.000000 114.193 6.1212
862.000000 114.221 6.5703
875.000000 114.223 7.1204
885.000000 114.263 7.4848
900.000000 114.288 8.0173
912.000000 114.325 8.4864
925.000000 114.353 9.0826
938.000000 114.414 9.5148
950.000000 114.464 10.0736
962.000000 114.489 10.4880
975.000000 114.543 10.7374
988.000000 114.563 11.2464
1000.000000 114.578 10.9882
1015.000000 114.664 12.0138
1030.000000 114.712 12.4671
1044.000000 114.848 12.5245
1060.000000 114.868 13.1357
1075.000000 114.953 13.0773
1090.000000 115.006 13.5275
1106.000000 115.056 13.5126
1120.000000 115.133 13.6758
1138.000000 115.210 14.0889
1150.000000 115.234 14.1756
1172.000000 115.329 14.2037
1180.000000 115.368 14.4631
1206.000000 115.434 14.5822
1220.000000 115.488 14.7190
1241.000000 115.536 14.8940
1250.000000 115.577 14.8058
1265.000000 115.586 14.8182
1280.000000 115.625 14.8628
1315.000000 115.737 15.2075
1320.000000 115.759 15.2894
1340.000000 115.782 15.2808
1360.000000 115.812 15.5587
1380.000000 115.844 15.5996
1400.000000 115.875 15.7139
1430.000000 115.921 16.0118
1450.000000 115.986 16.2825
1475.000000 116.004 16.6993
1500.000000 116.062 16.8500
1525.000000 116.143 16.9723
1550.000000 116.144 17.7141
1575.000000 116.216 17.8185
1600.000000 116.264 18.1433
1625.000000 116.331 18.7706
1650.000000 116.415 18.8523
1675.000000 116.495 19.3056
1700.000000 116.565 19.7870
1725.000000 116.620 20.0808
1750.000000 116.712 20.4853
1775.000000 116.836 20.7154
1800.000000 116.916 21.2133
1825.000000 116.997 21.4588
1850.000000 117.088 21.8807
1875.000000 117.210 22.1975
1900.000000 117.301 22.2917
1925.000000 117.435 22.8151
1950.000000 117.562 22.9147
1975.000000 117.677 23.1466
2000.000000 117.743 23.2866
2030.000000 117.973 23.5811
2060.000000 118.135 23.7792
2090.000000 118.327 23.7488
2120.000000 118.480 23.7899
2140.000000 118.619 23.9531
2180.000000 118.868 23.7797
2200.000000 119.004 23.6478
2240.000000 119.258 23.4655
2270.000000 119.441 22.9290
2300.000000 119.682 22.6217
2330.000000 119.857 22.1550
2360.000000 120.070 21.5165
2400.000000 120.312 20.6560
2430.000000 120.516 19.7633
2470.000000 120.781 18.5410
2500.000000 120.915 17.5335
2540.000000 121.151 15.8295
2580.000000 121.371 14.1958
2620.000000 121.519 12.2824
2650.000000 121.610 10.7716
2690.000000 121.727 8.7343
2720.000000 121.781 7.2932
2760.000000 121.844 5.1481
2800.000000 121.840 3.1924
2850.000000 121.811 0.8654
2900.000000 121.752 -1.4091
2950.000000 121.640 -3.2777
3000.000000 121.522 -4.9714
3040.000000 121.419 -6.4292
3070.000000 121.332 -7.1790
3110.000000 121.230 -8.3495
3150.000000 121.094 -9.3419
3200.000000 120.962 -10.4649
3250.000000 120.811 -11.2572
3300.000000 120.654 -12.2121
3350.000000 120.507 -12.8747
3400.000000 120.374 -13.5543
3450.000000 120.254 -14.1549
3500.000000 120.122 -14.6546
3550.000000 119.966 -15.1504
3600.000000 119.857 -15.6356
3650.000000 119.726 -16.0690
3700.000000 119.577 -16.7089
3750.000000 119.442 -17.1929
3820.000000 119.202 -17.8108
3870.000000 119.019 -18.2371
3950.000000 118.677 -18.3751
4000.000000 118.501 -18.2667
4060.000000 118.126 -17.5587
4120.000000 117.816 -16.7210
4180.000000 117.559 -15.0975
4250.000000 117.347 -12.5248
4310.000000 117.272 -9.5935
4370.000000 117.352 -7.2228
4440.000000 117.572 -4.1665
4500.000000 117.960 -3.3925
4550.000000 118.247 -2.3859
4620.000000 118.609 -2.6675
4680.000000 118.910 -3.7369
4750.000000 119.109 -5.2614
4820.000000 119.245 -7.2033
4870.000000 119.275 -8.8304
4940.000000 119.193 -11.0098
5000.000000 119.099 -12.4639
5080.000000 118.738 -14.3891
5150.000000 118.394 -15.1602
5220.000000 117.992 -15.3840
5300.000000 117.545 -14.5999
5380.000000 117.165 -12.4524
5450.000000 116.897 -10.4593
5520.000000 116.799 -7.9831
5600.000000 116.809 -5.6420
5700.000000 116.913 -2.6760
5800.000000 117.063 -0.4784
5900.000000 117.357 1.0382
6000.000000 117.630 2.0401
6080.000000 117.799 2.0527
6150.000000 117.973 1.6119
6220.000000 118.097 1.1008
6300.000000 118.184 0.5220
6400.000000 118.262 -0.4135
6500.000000 118.303 -1.6163
6600.000000 118.156 -2.7677
6700.000000 118.009 -3.5019
6800.000000 117.784 -4.1840
6900.000000 117.583 -4.6332
7000.000000 117.433 -4.7936
7100.000000 117.107 -3.5416
7200.000000 116.850 -2.4721
7300.000000 116.702 -1.5235
7400.000000 116.619 -0.5207
7500.000000 116.554 0.7025
7620.000000 116.480 2.3272
7750.000000 116.557 3.5609
7880.000000 116.635 4.5037
8000.000000 116.826 3.4052
8120.000000 117.004 4.6899
8250.000000 117.136 3.8246
8380.000000 117.215 1.7218
8500.000000 117.270 0.0514
8620.000000 117.183 -2.3455
8750.000000 116.923 -4.6489
8850.000000 116.711 -5.7816
9000.000000 116.193 -7.0394
9120.000000 115.874 -8.2461
9250.000000 115.466 -7.8743
9380.000000 115.091 -7.7545
9500.000000 114.796 -5.9961
9620.000000 114.499 -4.3498
9750.000000 114.339 -3.1078
9880.000000 114.294 -0.5608
10000.000000 114.360 0.6137
10150.000000 114.434 2.4679
10300.000000 114.608 3.8488
10440.000000 115.009 4.4673
10600.000000 115.344 4.6163
10750.000000 115.671 4.0342
10900.000000 115.981 2.7644
11060.000000 116.264 0.9646
11200.000000 116.454 -0.5903
11380.000000 116.641 -2.1647
11500.000000 116.741 -3.9663
11720.000000 116.810 -5.9369
11800.000000 116.866 -6.8519
12060.000000 116.899 -9.1952
12200.000000 116.852 -10.3645
12410.000000 116.831 -11.3958
12500.000000 116.843 -11.9683
12650.000000 116.920 -13.3576
12800.000000 116.929 -14.7869
13150.000000 116.956 -17.8751
13200.000000 116.860 -18.4910
13400.000000 116.941 -22.0334
13600.000000 116.813 -25.8476
13800.000000 116.446 -31.0097
14000.000000 115.759 -37.0420
14300.000000 113.862 -44.0172
14500.000000 112.236 -46.0467
14750.000000 110.128 -44.0372
15000.000000 108.262 -37.0614
15250.000000 106.750 -29.1108
15500.000000 105.516 -16.6164
15750.000000 104.234 -7.6034
16000.000000 103.640 9.1959
16250.000000 103.730 19.8244
16500.000000 104.361 31.3069
16750.000000 105.002 41.4889
17000.000000 105.687 45.6468
17250.000000 105.552 50.8062
17500.000000 106.297 55.9347
17750.000000 106.830 60.7826
18000.000000 107.020 60.4136
18250.000000 107.123 62.2313
18500.000000 106.779 62.5850
18750.000000 105.950 60.9748
19000.000000 105.190 65.9232
19250.000000 103.715 70.0176
19500.000000 103.074 81.5100
19750.000000 102.270 85.2310
