* Measurement data measured by REW V5.31.1
* Source: Microphone (USB Sound Device        ), MICROPHONE (Master Volume), L, volume: 0.250
* Format: 256k Log Swept Sine, 1 sweep at -20.0 dBFS with no timing reference
* Dated: Oct 3, 2024 6:02:11 PM
* REW Settings:
*  C-weighting compensation: Off
*  Target level: 75.0 dB
* Note: 
* Measurement: L Origin foam 243
* Smoothing: None
* Frequency Step: 1/48 octave
* Start Frequency: 20.300 Hz
*
* Freq(Hz) SPL(dB) Phase(degrees)
20.299999 85.161 14.9198
20.600000 85.168 14.2618
20.900000 85.169 13.6764
21.200001 85.169 13.0997
21.400000 85.169 12.7165
21.799999 85.172 11.9523
22.000000 85.174 11.5723
22.400000 85.179 10.8216
22.700001 85.182 10.2710
23.000000 85.185 9.7327
23.299999 85.187 9.2051
23.600000 85.189 8.6859
24.000000 85.191 8.0037
24.299999 85.192 7.4994
24.700001 85.192 6.8385
25.000000 85.192 6.3527
25.400000 85.190 5.7180
25.799999 85.186 5.0961
26.200001 85.178 4.4844
26.500000 85.171 4.0316
26.900000 85.159 3.4354
27.200001 85.150 2.9930
27.600000 85.139 2.4078
28.000000 85.131 1.8275
28.500000 85.122 1.1161
29.000000 85.113 0.4381
29.500000 85.102 -0.1932
30.000000 85.087 -0.7869
30.400000 85.074 -1.2554
30.700001 85.064 -1.6139
31.100000 85.049 -2.1082
31.500000 85.033 -2.6166
32.000000 85.012 -3.2491
32.500000 84.991 -3.8496
33.000000 84.972 -4.4096
33.500000 84.954 -4.9482
34.000000 84.935 -5.4914
34.500000 84.913 -6.0467
35.000000 84.887 -6.6020
35.500000 84.863 -7.1454
36.000000 84.842 -7.6775
36.500000 84.823 -8.1999
37.000000 84.801 -8.7010
37.500000 84.776 -9.1648
38.200001 84.739 -9.7622
38.700001 84.714 -10.1898
39.500000 84.673 -10.9256
40.000000 84.645 -11.4014
40.599998 84.611 -11.9659
41.200001 84.578 -12.5217
41.799999 84.544 -13.0654
42.500000 84.503 -13.6656
43.099998 84.469 -14.1554
43.700001 84.437 -14.6506
44.400002 84.398 -15.2394
45.000000 84.362 -15.7181
45.500000 84.333 -16.0792
46.200001 84.298 -16.5511
46.799999 84.269 -16.9753
47.500000 84.226 -17.5235
48.200001 84.172 -18.0842
48.700001 84.132 -18.4560
49.400002 84.087 -18.9238
50.000000 84.055 -19.2991
50.799999 84.012 -19.7967
51.500000 83.969 -20.2338
52.200001 83.924 -20.6844
53.000000 83.876 -21.2368
53.799999 83.824 -21.7724
54.500000 83.775 -22.1608
55.200001 83.730 -22.5234
56.000000 83.679 -23.0073
57.000000 83.609 -23.6413
58.000000 83.542 -24.2193
59.000000 83.469 -24.7286
60.000000 83.407 -25.1970
60.799999 83.355 -25.6677
61.500000 83.297 -26.0607
62.200001 83.243 -26.3810
63.000000 83.194 -26.7657
64.000000 83.126 -27.2674
65.000000 83.056 -27.7011
66.000000 82.986 -28.1842
67.000000 82.912 -28.6225
68.000000 82.847 -29.0327
69.000000 82.774 -29.4418
70.000000 82.702 -29.8343
71.000000 82.631 -30.2723
72.000000 82.552 -30.6435
73.000000 82.482 -30.9923
74.000000 82.411 -31.3744
75.000000 82.342 -31.7064
76.199997 82.257 -32.1347
77.500000 82.157 -32.6507
78.800003 82.067 -33.0432
80.000000 81.982 -33.3855
81.199997 81.881 -33.7306
82.500000 81.799 -34.0809
83.800003 81.710 -34.4343
85.000000 81.602 -34.6959
86.199997 81.530 -34.9731
87.500000 81.445 -35.4773
88.500000 81.352 -35.7343
90.000000 81.227 -35.9011
91.199997 81.179 -36.0037
92.500000 81.096 -36.4094
93.800003 80.981 -36.8400
95.000000 80.863 -37.0053
96.199997 80.778 -37.1010
97.500000 80.693 -37.1616
98.800003 80.641 -37.4472
100.000000 80.549 -37.7514
101.500000 80.441 -38.1440
103.000000 80.295 -38.1890
104.400002 80.227 -38.3373
106.000000 80.073 -38.4650
107.500000 80.037 -38.4323
109.000000 79.911 -38.9886
110.599998 79.758 -38.6976
112.000000 79.719 -38.7871
113.800003 79.578 -39.2315
115.000000 79.453 -39.1970
117.199997 79.358 -38.9615
118.000000 79.328 -39.0575
120.599998 79.113 -39.2474
122.000000 79.040 -39.1693
124.099998 78.922 -39.0922
125.000000 78.861 -39.2158
126.500000 78.768 -39.2649
128.000000 78.656 -39.3310
131.500000 78.437 -39.1137
132.000000 78.414 -39.0313
134.000000 78.311 -38.7893
136.000000 78.180 -38.8689
138.000000 78.082 -38.7366
140.000000 77.950 -38.5481
143.000000 77.782 -38.4078
145.000000 77.688 -38.2384
147.500000 77.544 -37.8829
150.000000 77.408 -37.6109
152.500000 77.291 -37.3540
155.000000 77.171 -37.0539
157.500000 77.045 -36.7057
160.000000 76.949 -36.3533
162.500000 76.820 -35.9312
165.000000 76.724 -35.6243
167.500000 76.601 -35.1662
170.000000 76.516 -35.0088
172.500000 76.455 -34.4650
175.000000 76.326 -33.9105
177.500000 76.257 -33.5928
180.000000 76.136 -33.2016
182.500000 76.096 -32.6078
185.000000 75.991 -32.2735
187.500000 75.900 -31.6815
190.000000 75.864 -31.3735
192.500000 75.746 -31.0983
195.000000 75.714 -30.4970
197.500000 75.672 -30.1704
200.000000 75.608 -29.4741
203.000000 75.524 -28.7988
206.000000 75.422 -28.6057
209.000000 75.388 -28.3574
212.000000 75.386 -27.4062
214.000000 75.289 -27.1392
218.000000 75.254 -26.4459
220.000000 75.174 -26.4452
224.000000 75.107 -25.6689
227.000000 75.122 -25.3758
230.000000 75.071 -25.3964
233.000000 74.977 -25.3715
236.000000 74.847 -25.4133
240.000000 74.464 -25.1599
243.000000 74.231 -21.7602
247.000000 74.504 -19.2712
250.000000 74.656 -18.8238
254.000000 74.708 -18.6114
258.000000 74.758 -18.2689
262.000000 74.738 -18.0308
265.000000 74.730 -17.6227
269.000000 74.746 -17.2431
272.000000 74.760 -16.8841
276.000000 74.763 -16.4635
280.000000 74.750 -16.0417
285.000000 74.756 -15.5423
290.000000 74.759 -14.9776
295.000000 74.767 -14.6947
300.000000 74.743 -13.7592
304.000000 74.790 -13.8396
307.000000 74.776 -13.5138
311.000000 74.738 -13.0498
315.000000 74.778 -12.8164
320.000000 74.766 -12.6397
325.000000 74.711 -12.1665
330.000000 74.746 -11.8641
335.000000 74.747 -11.3526
340.000000 74.751 -10.8189
345.000000 74.765 -10.6139
350.000000 74.758 -10.5915
355.000000 74.796 -10.1854
360.000000 74.808 -9.7680
365.000000 74.807 -9.5141
370.000000 74.812 -9.3268
375.000000 74.810 -8.9990
382.000000 74.817 -8.7342
387.000000 74.822 -8.5701
395.000000 74.806 -8.0073
400.000000 74.816 -8.0059
406.000000 74.809 -7.5995
412.000000 74.835 -7.3498
418.000000 74.832 -7.1895
425.000000 74.822 -7.1018
431.000000 74.796 -6.5990
437.000000 74.832 -6.4059
444.000000 74.816 -6.2379
450.000000 74.827 -6.0546
455.000000 74.830 -5.7987
462.000000 74.840 -5.5971
468.000000 74.824 -5.4644
475.000000 74.855 -5.1700
482.000000 74.822 -5.1971
487.000000 74.822 -4.9686
494.000000 74.819 -4.5473
500.000000 74.791 -4.7161
508.000000 74.793 -4.2998
515.000000 74.807 -4.0806
522.000000 74.766 -3.9102
530.000000 74.766 -3.4882
538.000000 74.770 -3.2844
545.000000 74.801 -3.0119
552.000000 74.771 -2.8884
560.000000 74.799 -2.5367
570.000000 74.775 -2.5244
580.000000 74.800 -2.0289
590.000000 74.737 -2.0282
600.000000 74.722 -1.4770
608.000000 74.754 -1.4758
615.000000 74.724 -1.2051
622.000000 74.722 -1.1314
630.000000 74.689 -0.8872
640.000000 74.698 -0.5847
650.000000 74.642 -0.1318
660.000000 74.669 0.3223
670.000000 74.643 0.5300
680.000000 74.687 0.8845
690.000000 74.638 1.2281
700.000000 74.670 1.3394
710.000000 74.646 1.8210
720.000000 74.636 2.3213
730.000000 74.627 2.5289
740.000000 74.605 2.9105
750.000000 74.570 3.0408
762.000000 74.629 3.7316
775.000000 74.602 4.1828
788.000000 74.586 4.6182
800.000000 74.582 4.9134
812.000000 74.605 5.5681
825.000000 74.574 5.7876
838.000000 74.605 6.5491
850.000000 74.619 6.9082
862.000000 74.652 7.4077
875.000000 74.702 8.0564
885.000000 74.686 8.5627
900.000000 74.696 9.0072
912.000000 74.742 9.2987
925.000000 74.793 10.0452
938.000000 74.827 10.4139
950.000000 74.853 10.8744
962.000000 74.916 11.2106
975.000000 74.972 11.7943
988.000000 75.002 12.2216
1000.000000 74.992 13.3715
1015.000000 75.098 12.9268
1030.000000 75.170 13.0771
1044.000000 75.246 13.6937
1060.000000 75.309 13.9816
1075.000000 75.410 14.1155
1090.000000 75.473 14.6693
1106.000000 75.520 14.7542
1120.000000 75.555 14.8347
1138.000000 75.657 15.1056
1150.000000 75.699 15.1879
1172.000000 75.838 15.5298
1180.000000 75.839 15.3161
1206.000000 75.910 15.5993
1220.000000 75.933 15.8613
1241.000000 76.037 15.7980
1250.000000 76.037 15.7995
1265.000000 76.072 16.0743
1280.000000 76.141 16.1405
1315.000000 76.182 16.3083
1320.000000 76.226 16.2330
1340.000000 76.253 16.4221
1360.000000 76.317 16.5048
1380.000000 76.345 16.7818
1400.000000 76.398 16.9090
1430.000000 76.457 17.0699
1450.000000 76.506 17.2402
1475.000000 76.539 17.6113
1500.000000 76.591 17.6118
1525.000000 76.608 17.9894
1550.000000 76.717 18.3605
1575.000000 76.760 18.5367
1600.000000 76.789 19.0424
1625.000000 76.887 19.1926
1650.000000 76.948 19.5193
1675.000000 77.018 19.8059
1700.000000 77.066 20.2426
1725.000000 77.151 20.7401
1750.000000 77.235 21.0117
1775.000000 77.337 21.2924
1800.000000 77.403 21.6956
1825.000000 77.504 22.0190
1850.000000 77.654 22.1722
1875.000000 77.760 22.4563
1900.000000 77.836 22.6224
1925.000000 77.970 23.1190
1950.000000 78.078 23.4140
1975.000000 78.205 23.5386
2000.000000 78.370 23.5924
2030.000000 78.459 23.8917
2060.000000 78.655 23.9323
2090.000000 78.802 24.0325
2120.000000 78.992 23.9855
2140.000000 79.089 24.0922
2180.000000 79.365 23.8813
2200.000000 79.474 23.6789
2240.000000 79.731 23.3849
2270.000000 79.918 23.0256
2300.000000 80.121 22.6127
2330.000000 80.300 22.0832
2360.000000 80.492 21.5351
2400.000000 80.753 20.7098
2430.000000 80.926 19.9883
2470.000000 81.147 18.6286
2500.000000 81.333 17.5424
2540.000000 81.525 16.0223
2580.000000 81.703 14.4996
2620.000000 81.863 12.7433
2650.000000 81.976 11.2866
2690.000000 82.080 9.4597
2720.000000 82.142 8.0760
2760.000000 82.181 6.1870
2800.000000 82.218 4.1400
2850.000000 82.207 1.9104
2900.000000 82.142 -0.1906
2950.000000 82.067 -2.0511
3000.000000 81.957 -3.8526
3040.000000 81.876 -5.2885
3070.000000 81.784 -6.0944
3110.000000 81.675 -7.1407
3150.000000 81.587 -8.2145
3200.000000 81.460 -9.2114
3250.000000 81.306 -10.2989
3300.000000 81.191 -11.2439
3350.000000 81.064 -11.9669
3400.000000 80.908 -12.7885
3450.000000 80.793 -13.2189
3500.000000 80.664 -14.0455
3550.000000 80.547 -14.5984
3600.000000 80.420 -15.2646
3650.000000 80.298 -15.8806
3700.000000 80.162 -16.5073
3750.000000 80.024 -17.2252
3820.000000 79.791 -17.9633
3870.000000 79.584 -18.4596
3950.000000 79.232 -19.2014
4000.000000 78.948 -18.9688
4060.000000 78.680 -18.6932
4120.000000 78.309 -17.8504
4180.000000 78.044 -16.1041
4250.000000 77.771 -13.4858
4310.000000 77.728 -10.7807
4370.000000 77.804 -8.3505
4440.000000 78.120 -6.3380
4500.000000 78.420 -5.1034
4550.000000 78.673 -5.0450
4620.000000 79.007 -5.7412
4680.000000 79.149 -6.8679
4750.000000 79.315 -8.6351
4820.000000 79.349 -10.8017
4870.000000 79.270 -12.1701
4940.000000 79.082 -14.2222
5000.000000 78.801 -15.7997
5080.000000 78.395 -16.4371
5150.000000 77.980 -16.9070
5220.000000 77.563 -15.6779
5300.000000 77.184 -14.1866
5380.000000 76.903 -11.8827
5450.000000 76.760 -9.6384
5520.000000 76.655 -7.1228
5600.000000 76.746 -4.6947
5700.000000 76.860 -2.3280
5800.000000 77.113 -0.3345
5900.000000 77.299 0.6068
6000.000000 77.437 1.3989
6080.000000 77.590 0.8151
6150.000000 77.736 0.6773
6220.000000 77.807 0.4605
6300.000000 77.836 0.1682
6400.000000 77.856 -1.1674
6500.000000 77.797 -1.6435
6600.000000 77.713 -2.1866
6700.000000 77.513 -3.0424
6800.000000 77.318 -3.3814
6900.000000 77.093 -3.0736
7000.000000 76.873 -2.1075
7100.000000 76.657 -1.8752
7200.000000 76.443 -0.6247
7300.000000 76.304 0.6067
7400.000000 76.277 1.9088
7500.000000 76.259 2.4489
7620.000000 76.141 3.5079
7750.000000 76.121 4.3837
7880.000000 76.221 4.8943
8000.000000 76.149 6.4325
8120.000000 76.309 5.6967
8250.000000 76.325 5.5859
8380.000000 76.366 4.2526
8500.000000 76.337 3.7162
8620.000000 76.247 2.3256
8750.000000 76.137 1.3451
8850.000000 75.946 0.2662
9000.000000 75.626 -0.7173
9120.000000 75.458 -0.7331
9250.000000 75.144 -0.2334
9380.000000 74.986 -0.1777
9500.000000 74.797 0.4072
9620.000000 74.620 1.4991
9750.000000 74.524 2.7134
9880.000000 74.486 4.1205
10000.000000 74.648 5.1745
10150.000000 74.758 7.3255
10300.000000 75.001 8.5049
10440.000000 75.311 8.9903
10600.000000 75.698 9.0822
10750.000000 76.107 8.5809
10900.000000 76.559 6.9549
11060.000000 76.887 4.1844
11200.000000 77.124 2.2701
11380.000000 77.341 -1.1100
11500.000000 77.387 -3.0225
11720.000000 77.328 -6.3136
11800.000000 77.299 -7.3656
12060.000000 77.035 -8.8495
12200.000000 76.948 -9.1978
12410.000000 77.099 -9.4695
12500.000000 77.287 -10.2031
12650.000000 77.485 -11.4585
12800.000000 77.585 -13.6609
13150.000000 77.780 -20.3072
13200.000000 77.716 -21.8778
13400.000000 77.620 -26.8495
13600.000000 77.152 -33.7041
13800.000000 76.254 -40.9089
14000.000000 74.932 -46.0444
14300.000000 72.278 -49.6473
14500.000000 70.543 -47.7509
14750.000000 68.337 -42.8702
15000.000000 66.393 -35.1132
15250.000000 64.527 -25.6955
15500.000000 63.437 -13.2093
15750.000000 62.368 2.6872
16000.000000 61.873 15.1739
16250.000000 62.123 28.9618
16500.000000 62.688 43.5494
16750.000000 63.196 50.6945
17000.000000 63.481 53.2944
17250.000000 64.074 62.1550
17500.000000 64.254 65.7660
17750.000000 64.616 70.2108
18000.000000 64.158 74.0473
18250.000000 63.956 79.6684
18500.000000 64.173 83.9431
18750.000000 63.356 86.3044
19000.000000 62.948 92.9110
19250.000000 62.866 99.6493
19500.000000 61.991 103.5951
19750.000000 61.995 109.0630
