* Measurement data measured by REW V5.31.1
* Source: Microphone (USB Sound Device        ), MICROPHONE (Master Volume), L, volume: 0.250
* Format: 256k Log Swept Sine, 1 sweep at -20.0 dBFS with no timing reference
* Dated: Oct 3, 2024 5:41:28 PM
* REW Settings:
*  C-weighting compensation: Off
*  Target level: 75.0 dB
* Note: 
* Measurement: L Origin 231
* Smoothing: None
* Frequency Step: 1/48 octave
* Start Frequency: 20.300 Hz
*
* Freq(Hz) SPL(dB) Phase(degrees)
20.299999 127.634 16.5121
20.600000 127.645 15.8521
20.900000 127.650 15.2501
21.200001 127.654 14.6428
21.400000 127.657 14.2337
21.799999 127.663 13.4112
22.000000 127.667 13.0026
22.400000 127.675 12.2027
22.700001 127.681 11.6252
23.000000 127.687 11.0697
23.299999 127.693 10.5345
23.600000 127.696 10.0167
24.000000 127.699 9.3484
24.299999 127.699 8.8597
24.700001 127.697 8.2190
25.000000 127.695 7.7413
25.400000 127.693 7.1014
25.799999 127.690 6.4557
26.200001 127.686 5.8112
26.500000 127.681 5.3369
26.900000 127.675 4.7248
27.200001 127.670 4.2823
27.600000 127.666 3.7086
28.000000 127.662 3.1418
28.500000 127.655 2.4314
29.000000 127.645 1.7250
29.500000 127.630 1.0381
30.000000 127.614 0.3769
30.400000 127.602 -0.1385
30.700001 127.594 -0.5203
31.100000 127.584 -1.0231
31.500000 127.574 -1.5153
32.000000 127.560 -2.1103
32.500000 127.544 -2.6849
33.000000 127.527 -3.2503
33.500000 127.508 -3.8164
34.000000 127.486 -4.3828
34.500000 127.464 -4.9405
35.000000 127.443 -5.4825
35.500000 127.426 -6.0099
36.000000 127.410 -6.5311
36.500000 127.394 -7.0537
37.000000 127.374 -7.5787
37.500000 127.350 -8.1011
38.200001 127.311 -8.8140
38.700001 127.284 -9.3020
39.500000 127.245 -10.0403
40.000000 127.224 -10.4820
40.599998 127.199 -11.0063
41.200001 127.171 -11.5313
41.799999 127.136 -12.0508
42.500000 127.095 -12.6484
43.099998 127.062 -13.1692
43.700001 127.031 -13.6977
44.400002 126.995 -14.2861
45.000000 126.966 -14.7476
45.500000 126.943 -15.1208
46.200001 126.904 -15.6508
46.799999 126.863 -16.0981
47.500000 126.817 -16.6021
48.200001 126.777 -17.1305
48.700001 126.749 -17.5271
49.400002 126.708 -18.0571
50.000000 126.673 -18.4663
50.799999 126.625 -18.9947
51.500000 126.578 -19.4482
52.200001 126.531 -19.8730
53.000000 126.485 -20.3790
53.799999 126.438 -20.9232
54.500000 126.391 -21.3594
55.200001 126.348 -21.7648
56.000000 126.300 -22.2528
57.000000 126.236 -22.8534
58.000000 126.175 -23.4283
59.000000 126.106 -23.9895
60.000000 126.034 -24.4931
60.799999 125.982 -24.9317
61.500000 125.934 -25.3238
62.200001 125.885 -25.6696
63.000000 125.834 -26.0394
64.000000 125.768 -26.5431
65.000000 125.696 -27.0057
66.000000 125.633 -27.4363
67.000000 125.564 -27.9415
68.000000 125.482 -28.3973
69.000000 125.414 -28.7880
70.000000 125.354 -29.1998
71.000000 125.286 -29.5934
72.000000 125.212 -29.9640
73.000000 125.140 -30.3567
74.000000 125.070 -30.7682
75.000000 124.998 -31.1466
76.199997 124.915 -31.5439
77.500000 124.820 -31.9803
78.800003 124.726 -32.3988
80.000000 124.644 -32.7830
81.199997 124.562 -33.1606
82.500000 124.460 -33.4680
83.800003 124.379 -33.9823
85.000000 124.263 -34.0970
86.199997 124.207 -34.2108
87.500000 124.083 -34.8448
88.500000 124.018 -35.1106
90.000000 123.935 -35.4724
91.199997 123.836 -35.6132
92.500000 123.745 -35.9358
93.800003 123.652 -36.2411
95.000000 123.569 -36.4923
96.199997 123.474 -36.6714
97.500000 123.406 -36.8623
98.800003 123.294 -37.0459
100.000000 123.236 -37.1483
101.500000 123.122 -37.6048
103.000000 122.996 -37.8196
104.400002 122.921 -37.9358
106.000000 122.797 -37.8997
107.500000 122.699 -38.0616
109.000000 122.594 -38.2840
110.599998 122.494 -38.4429
112.000000 122.392 -38.5379
113.800003 122.285 -38.6736
115.000000 122.201 -38.7232
117.199997 122.037 -38.8881
118.000000 121.990 -38.9154
120.599998 121.832 -38.8500
122.000000 121.742 -39.0172
124.099998 121.608 -38.8493
125.000000 121.545 -38.8856
126.500000 121.450 -38.9345
128.000000 121.370 -38.8750
131.500000 121.155 -38.8010
132.000000 121.126 -38.7872
134.000000 121.008 -38.6625
136.000000 120.884 -38.5381
138.000000 120.775 -38.4483
140.000000 120.659 -38.3216
143.000000 120.496 -38.0390
145.000000 120.393 -37.8879
147.500000 120.267 -37.6242
150.000000 120.128 -37.3221
152.500000 120.010 -37.0697
155.000000 119.883 -36.8290
157.500000 119.764 -36.4315
160.000000 119.659 -36.1032
162.500000 119.548 -35.7476
165.000000 119.437 -35.3751
167.500000 119.340 -35.0405
170.000000 119.221 -34.6419
172.500000 119.126 -34.3145
175.000000 119.041 -33.8623
177.500000 118.953 -33.4098
180.000000 118.866 -33.0887
182.500000 118.784 -32.8308
185.000000 118.705 -32.1541
187.500000 118.637 -31.8356
190.000000 118.567 -31.2750
192.500000 118.523 -31.1443
195.000000 118.458 -30.2967
197.500000 118.370 -29.7345
200.000000 118.172 -30.0385
203.000000 118.194 -28.7567
206.000000 118.149 -27.7728
209.000000 118.147 -28.2996
212.000000 118.048 -27.9273
214.000000 118.015 -27.1664
218.000000 117.949 -26.5451
220.000000 117.940 -26.5556
224.000000 117.873 -25.8663
227.000000 117.840 -25.8845
230.000000 117.781 -25.5862
233.000000 117.719 -25.7021
236.000000 117.580 -25.9833
240.000000 117.081 -25.9160
243.000000 116.732 -21.9644
247.000000 117.119 -18.7053
250.000000 117.315 -18.4842
254.000000 117.400 -18.2886
258.000000 117.434 -18.0539
262.000000 117.457 -17.6632
265.000000 117.454 -17.3394
269.000000 117.455 -16.9696
272.000000 117.435 -16.8493
276.000000 117.455 -16.2754
280.000000 117.455 -15.9081
285.000000 117.453 -15.3268
290.000000 117.462 -14.9011
295.000000 117.456 -14.1478
300.000000 117.459 -14.2719
304.000000 117.417 -13.2674
307.000000 117.511 -13.3794
311.000000 117.467 -13.0885
315.000000 117.480 -12.6780
320.000000 117.461 -12.4261
325.000000 117.462 -12.0292
330.000000 117.467 -11.5437
335.000000 117.460 -11.2586
340.000000 117.479 -11.0127
345.000000 117.486 -10.6155
350.000000 117.490 -10.3045
355.000000 117.494 -10.0047
360.000000 117.492 -9.6041
365.000000 117.499 -9.4019
370.000000 117.503 -9.0267
375.000000 117.526 -8.6901
382.000000 117.525 -8.5694
387.000000 117.518 -8.2856
395.000000 117.515 -7.9001
400.000000 117.547 -7.6782
406.000000 117.542 -7.3796
412.000000 117.540 -7.0944
418.000000 117.550 -6.9893
425.000000 117.551 -6.6274
431.000000 117.543 -6.5055
437.000000 117.556 -6.3290
444.000000 117.551 -6.0195
450.000000 117.551 -5.8512
455.000000 117.555 -5.6968
462.000000 117.559 -5.4231
468.000000 117.561 -5.2369
475.000000 117.529 -4.9585
482.000000 117.567 -4.8822
487.000000 117.558 -4.6192
494.000000 117.560 -4.3819
500.000000 117.556 -4.2292
508.000000 117.553 -4.1207
515.000000 117.552 -3.9606
522.000000 117.552 -3.6051
530.000000 117.580 -3.3666
538.000000 117.565 -3.2942
545.000000 117.560 -2.9561
552.000000 117.557 -2.7788
560.000000 117.532 -2.6698
570.000000 117.554 -2.4354
580.000000 117.546 -2.1364
590.000000 117.534 -1.8207
600.000000 117.504 -1.5820
608.000000 117.493 -1.6034
615.000000 117.483 -1.2931
622.000000 117.500 -1.1114
630.000000 117.492 -0.7242
640.000000 117.454 -0.6717
650.000000 117.461 -0.4257
660.000000 117.428 -0.0591
670.000000 117.424 0.1959
680.000000 117.393 0.5145
690.000000 117.403 0.9931
700.000000 117.402 1.3113
710.000000 117.366 1.5197
720.000000 117.367 2.0087
730.000000 117.354 2.2391
740.000000 117.331 2.5527
750.000000 117.336 2.8838
762.000000 117.347 3.4936
775.000000 117.349 3.9164
788.000000 117.328 4.4084
800.000000 117.337 4.8842
812.000000 117.319 5.4432
825.000000 117.351 6.0495
838.000000 117.359 6.4190
850.000000 117.373 6.9334
862.000000 117.386 7.5734
875.000000 117.412 7.9424
885.000000 117.433 8.3294
900.000000 117.464 9.0553
912.000000 117.495 9.5136
925.000000 117.547 9.8543
938.000000 117.585 10.4209
950.000000 117.647 10.7992
962.000000 117.663 11.1759
975.000000 117.708 11.7736
988.000000 117.755 12.1188
1000.000000 117.791 12.8756
1015.000000 117.888 12.8198
1030.000000 117.947 13.1378
1044.000000 118.020 13.4719
1060.000000 118.067 13.8021
1075.000000 118.169 14.0869
1090.000000 118.231 14.1922
1106.000000 118.280 14.4155
1120.000000 118.363 14.6281
1138.000000 118.426 14.8638
1150.000000 118.492 15.0593
1172.000000 118.550 15.0334
1180.000000 118.566 15.0721
1206.000000 118.674 15.2522
1220.000000 118.691 15.3381
1241.000000 118.762 15.4415
1250.000000 118.779 15.4772
1265.000000 118.831 15.6833
1280.000000 118.856 15.6772
1315.000000 118.947 15.7993
1320.000000 118.957 15.7701
1340.000000 119.008 16.0144
1360.000000 119.029 16.3302
1380.000000 119.076 16.2335
1400.000000 119.111 16.4610
1430.000000 119.176 16.6501
1450.000000 119.202 16.9218
1475.000000 119.233 17.1099
1500.000000 119.299 17.5596
1525.000000 119.329 17.8042
1550.000000 119.392 18.1451
1575.000000 119.467 18.6478
1600.000000 119.521 18.8052
1625.000000 119.569 19.3362
1650.000000 119.669 19.6174
1675.000000 119.701 19.9850
1700.000000 119.780 20.3077
1725.000000 119.883 20.7382
1750.000000 119.967 20.9854
1775.000000 120.057 21.2994
1800.000000 120.136 21.6031
1825.000000 120.235 22.0116
1850.000000 120.361 22.3113
1875.000000 120.460 22.6933
1900.000000 120.569 22.9076
1925.000000 120.685 23.1917
1950.000000 120.797 23.3874
1975.000000 120.922 23.5672
2000.000000 121.078 23.4192
2030.000000 121.210 23.9644
2060.000000 121.385 24.1995
2090.000000 121.567 24.2723
2120.000000 121.737 24.2629
2140.000000 121.860 24.1429
2180.000000 122.104 24.0351
2200.000000 122.233 24.0225
2240.000000 122.489 23.6282
2270.000000 122.674 23.2203
2300.000000 122.857 22.9002
2330.000000 123.075 22.4346
2360.000000 123.262 21.8461
2400.000000 123.506 20.8902
2430.000000 123.697 20.1482
2470.000000 123.929 18.8430
2500.000000 124.087 17.7822
2540.000000 124.317 16.4416
2580.000000 124.507 14.7560
2620.000000 124.663 13.0141
2650.000000 124.760 11.7174
2690.000000 124.872 9.7322
2720.000000 124.930 8.3116
2760.000000 124.993 6.3286
2800.000000 125.018 4.4430
2850.000000 124.997 2.2547
2900.000000 124.954 0.1790
2950.000000 124.876 -1.8712
3000.000000 124.759 -3.4120
3040.000000 124.677 -4.7673
3070.000000 124.593 -5.6969
3110.000000 124.500 -6.7284
3150.000000 124.412 -7.7987
3200.000000 124.277 -8.8297
3250.000000 124.144 -9.8986
3300.000000 123.998 -10.6684
3350.000000 123.865 -11.3944
3400.000000 123.741 -12.2216
3450.000000 123.612 -12.7713
3500.000000 123.477 -13.5149
3550.000000 123.368 -14.0547
3600.000000 123.251 -14.6642
3650.000000 123.139 -15.3164
3700.000000 122.989 -15.7555
3750.000000 122.844 -16.3270
3820.000000 122.614 -17.2836
3870.000000 122.432 -17.7777
3950.000000 122.094 -18.0476
4000.000000 121.778 -18.2779
4060.000000 121.501 -17.8387
4120.000000 121.178 -16.7468
4180.000000 120.924 -14.8814
4250.000000 120.704 -12.3683
4310.000000 120.658 -9.8160
4370.000000 120.762 -7.3415
4440.000000 121.010 -5.1481
4500.000000 121.271 -4.1573
4550.000000 121.578 -3.9688
4620.000000 121.888 -4.3517
4680.000000 122.086 -5.4205
4750.000000 122.247 -7.1516
4820.000000 122.271 -8.9688
4870.000000 122.261 -10.5361
4940.000000 122.094 -12.3027
5000.000000 121.810 -13.7604
5080.000000 121.475 -14.6158
5150.000000 121.064 -14.4424
5220.000000 120.716 -13.6187
5300.000000 120.307 -11.9567
5380.000000 120.054 -9.4450
5450.000000 119.930 -7.2078
5520.000000 119.940 -4.8755
5600.000000 119.996 -2.8098
5700.000000 120.209 -0.3217
5800.000000 120.427 1.1508
5900.000000 120.664 2.1517
6000.000000 120.884 2.8169
6080.000000 121.040 2.5690
6150.000000 121.201 2.6470
6220.000000 121.286 2.1262
6300.000000 121.383 1.5443
6400.000000 121.440 0.5407
6500.000000 121.402 -0.1397
6600.000000 121.368 -1.0752
6700.000000 121.225 -1.6639
6800.000000 121.061 -2.4559
6900.000000 120.906 -2.3989
7000.000000 120.724 -2.2315
7100.000000 120.601 -1.8060
7200.000000 120.446 -1.3320
7300.000000 120.354 -0.4166
7400.000000 120.359 0.0671
7500.000000 120.334 0.4008
7620.000000 120.309 0.5505
7750.000000 120.344 0.5942
7880.000000 120.371 0.5029
8000.000000 120.433 0.1148
8120.000000 120.418 -1.5125
8250.000000 120.355 -2.8283
8380.000000 120.197 -4.6748
8500.000000 119.986 -6.2553
8620.000000 119.750 -7.6321
8750.000000 119.391 -8.6547
8850.000000 119.089 -9.4229
9000.000000 118.663 -9.5579
9120.000000 118.355 -9.1961
9250.000000 118.041 -8.5581
9380.000000 117.809 -7.3403
9500.000000 117.662 -6.7175
9620.000000 117.487 -5.0273
9750.000000 117.434 -3.5317
9880.000000 117.493 -1.6038
10000.000000 117.606 -1.0010
10150.000000 117.833 0.7191
10300.000000 118.066 1.0190
10440.000000 118.399 0.9262
10600.000000 118.820 0.1484
10750.000000 119.116 -1.6470
10900.000000 119.334 -3.4368
11060.000000 119.436 -6.5762
11200.000000 119.487 -8.3577
11380.000000 119.420 -10.8049
11500.000000 119.345 -12.0496
11720.000000 119.141 -13.6819
11800.000000 118.993 -14.2007
12060.000000 118.757 -13.7452
12200.000000 118.769 -12.4692
12410.000000 118.999 -11.7368
12500.000000 119.115 -11.8601
12650.000000 119.444 -12.1178
12800.000000 119.625 -13.7698
13150.000000 119.969 -19.5094
13200.000000 120.032 -20.4370
13400.000000 119.954 -25.6226
13600.000000 119.653 -31.8524
13800.000000 118.892 -38.3720
14000.000000 117.593 -43.9645
14300.000000 115.121 -46.9617
14500.000000 113.465 -45.6257
14750.000000 111.331 -40.3069
15000.000000 109.589 -31.4790
15250.000000 108.353 -21.2980
15500.000000 107.114 -8.3501
15750.000000 106.077 5.2099
16000.000000 106.139 19.9235
16250.000000 106.419 32.7714
16500.000000 107.222 43.5782
16750.000000 107.654 48.8952
17000.000000 108.222 55.7784
17250.000000 109.216 60.3805
17500.000000 109.758 63.2476
17750.000000 109.694 65.2634
18000.000000 109.830 67.3789
18250.000000 109.708 69.1021
18500.000000 109.168 70.4954
18750.000000 108.667 74.4014
19000.000000 107.898 77.5057
19250.000000 107.064 84.2459
19500.000000 106.430 89.6184
19750.000000 105.798 93.8534
