* Measurement data measured by REW V5.31.1
* Source: Microphone (USB Sound Device        ), MICROPHONE (Master Volume), L, volume: 0.250
* Format: 256k Log Swept Sine, 1 sweep at -20.0 dBFS with no timing reference
* Dated: Oct 3, 2024 6:11:17 PM
* REW Settings:
*  C-weighting compensation: Off
*  Target level: 75.0 dB
* Note: 
* Measurement: R Origin foam 245
* Smoothing: None
* Frequency Step: 1/48 octave
* Start Frequency: 20.300 Hz
*
* Freq(Hz) SPL(dB) Phase(degrees)
20.299999 128.518 12.8944
20.600000 128.520 12.2519
20.900000 128.517 11.6821
21.200001 128.514 11.1201
21.400000 128.514 10.7455
21.799999 128.516 9.9944
22.000000 128.517 9.6190
22.400000 128.520 8.8755
22.700001 128.520 8.3309
23.000000 128.519 7.8015
23.299999 128.517 7.2868
23.600000 128.514 6.7839
24.000000 128.508 6.1265
24.299999 128.503 5.6394
24.700001 128.498 4.9954
25.000000 128.493 4.5171
25.400000 128.488 3.8875
25.799999 128.480 3.2714
26.200001 128.471 2.6732
26.500000 128.463 2.2377
26.900000 128.450 1.6735
27.200001 128.440 1.2596
27.600000 128.426 0.7134
28.000000 128.413 0.1674
28.500000 128.397 -0.5162
29.000000 128.379 -1.1882
29.500000 128.361 -1.8335
30.000000 128.342 -2.4523
30.400000 128.327 -2.9397
30.700001 128.315 -3.3072
31.100000 128.297 -3.8023
31.500000 128.278 -4.2979
32.000000 128.253 -4.9025
32.500000 128.230 -5.4798
33.000000 128.209 -6.0368
33.500000 128.189 -6.5877
34.000000 128.167 -7.1334
34.500000 128.139 -7.6600
35.000000 128.111 -8.1621
35.500000 128.085 -8.6578
36.000000 128.063 -9.1725
36.500000 128.041 -9.7087
37.000000 128.016 -10.2406
37.500000 127.987 -10.7420
38.200001 127.946 -11.3902
38.700001 127.917 -11.8355
39.500000 127.871 -12.5463
40.000000 127.844 -12.9954
40.599998 127.811 -13.5396
41.200001 127.774 -14.0702
41.799999 127.736 -14.5650
42.500000 127.691 -15.1149
43.099998 127.653 -15.6015
43.700001 127.612 -16.1035
44.400002 127.566 -16.6800
45.000000 127.528 -17.1562
45.500000 127.499 -17.5386
46.200001 127.456 -18.0425
46.799999 127.421 -18.4546
47.500000 127.378 -18.9492
48.200001 127.333 -19.4589
48.700001 127.299 -19.8113
49.400002 127.254 -20.2750
50.000000 127.215 -20.6572
50.799999 127.162 -21.1708
51.500000 127.109 -21.6354
52.200001 127.052 -22.0990
53.000000 126.993 -22.6116
53.799999 126.941 -23.1300
54.500000 126.894 -23.5662
55.200001 126.845 -23.9425
56.000000 126.794 -24.3626
57.000000 126.719 -24.9594
58.000000 126.640 -25.4975
59.000000 126.578 -26.0523
60.000000 126.504 -26.5929
60.799999 126.443 -26.9375
61.500000 126.394 -27.2661
62.200001 126.342 -27.6282
63.000000 126.285 -28.0179
64.000000 126.214 -28.4943
65.000000 126.135 -28.9232
66.000000 126.065 -29.3575
67.000000 125.989 -29.8611
68.000000 125.914 -30.2302
69.000000 125.844 -30.6347
70.000000 125.761 -31.0259
71.000000 125.695 -31.3936
72.000000 125.621 -31.8151
73.000000 125.547 -32.0990
74.000000 125.479 -32.5204
75.000000 125.385 -32.8554
76.199997 125.319 -33.1551
77.500000 125.206 -33.7007
78.800003 125.125 -33.9614
80.000000 125.030 -34.5166
81.199997 124.921 -34.7008
82.500000 124.824 -35.0215
83.800003 124.747 -35.3222
85.000000 124.652 -35.7404
86.199997 124.561 -35.9181
87.500000 124.467 -36.3010
88.500000 124.405 -36.4346
90.000000 124.296 -36.9810
91.199997 124.194 -37.0393
92.500000 124.122 -37.3587
93.800003 124.005 -37.4713
95.000000 123.923 -37.7780
96.199997 123.812 -38.0291
97.500000 123.734 -38.2449
98.800003 123.638 -38.6105
100.000000 123.543 -38.4384
101.500000 123.454 -38.6067
103.000000 123.327 -38.7645
104.400002 123.251 -39.1758
106.000000 123.134 -39.2317
107.500000 123.039 -39.3730
109.000000 122.904 -39.4955
110.599998 122.810 -39.6278
112.000000 122.709 -39.6365
113.800003 122.588 -39.7819
115.000000 122.495 -39.8594
117.199997 122.374 -39.8390
118.000000 122.314 -39.8711
120.599998 122.145 -39.9690
122.000000 122.050 -39.8857
124.099998 121.913 -39.8910
125.000000 121.861 -39.9237
126.500000 121.764 -39.9038
128.000000 121.686 -39.8878
131.500000 121.469 -39.7303
132.000000 121.442 -39.7077
134.000000 121.307 -39.6638
136.000000 121.202 -39.4910
138.000000 121.082 -39.3489
140.000000 120.985 -39.2584
143.000000 120.810 -38.9542
145.000000 120.703 -38.8224
147.500000 120.566 -38.5200
150.000000 120.427 -38.2866
152.500000 120.331 -38.0877
155.000000 120.213 -37.7551
157.500000 120.091 -37.3739
160.000000 119.970 -37.0736
162.500000 119.866 -36.5998
165.000000 119.731 -36.2221
167.500000 119.647 -35.9289
170.000000 119.542 -35.5894
172.500000 119.449 -35.2401
175.000000 119.375 -34.8236
177.500000 119.282 -34.4249
180.000000 119.201 -33.9033
182.500000 119.108 -33.4433
185.000000 119.020 -32.9169
187.500000 118.939 -32.6233
190.000000 118.887 -32.2172
192.500000 118.829 -31.8281
195.000000 118.758 -31.3844
197.500000 118.680 -30.8974
200.000000 118.610 -30.5240
203.000000 118.579 -30.1905
206.000000 118.514 -29.4030
209.000000 118.447 -28.9973
212.000000 118.365 -28.6406
214.000000 118.359 -28.2905
218.000000 118.264 -27.7554
220.000000 118.238 -27.4038
224.000000 118.181 -26.8469
227.000000 118.146 -26.4983
230.000000 118.094 -26.2468
233.000000 118.061 -25.9419
236.000000 118.010 -25.8088
240.000000 117.913 -25.9138
243.000000 117.718 -26.5903
247.000000 117.094 -24.0659
250.000000 117.297 -20.5420
254.000000 117.574 -19.7281
258.000000 117.673 -19.5398
262.000000 117.697 -19.2712
265.000000 117.711 -19.1256
269.000000 117.689 -18.7890
272.000000 117.702 -18.5124
276.000000 117.685 -18.0445
280.000000 117.675 -17.6296
285.000000 117.679 -17.2343
290.000000 117.668 -16.6197
295.000000 117.665 -16.1607
300.000000 117.660 -15.7048
304.000000 117.640 -15.3654
307.000000 117.654 -15.0413
311.000000 117.668 -14.7148
315.000000 117.695 -14.2147
320.000000 117.708 -14.6474
325.000000 117.664 -14.0288
330.000000 117.635 -13.6254
335.000000 117.632 -13.2731
340.000000 117.631 -13.0816
345.000000 117.625 -12.5553
350.000000 117.622 -12.2441
355.000000 117.640 -11.9661
360.000000 117.627 -11.7289
365.000000 117.615 -11.3641
370.000000 117.627 -11.1409
375.000000 117.636 -10.6421
382.000000 117.630 -10.3866
387.000000 117.607 -10.1818
395.000000 117.640 -9.8285
400.000000 117.625 -9.6658
406.000000 117.605 -9.3443
412.000000 117.638 -9.1018
418.000000 117.614 -8.7619
425.000000 117.616 -8.5347
431.000000 117.613 -8.2547
437.000000 117.625 -8.0248
444.000000 117.602 -7.7902
450.000000 117.613 -7.6287
455.000000 117.586 -7.4877
462.000000 117.597 -7.2245
468.000000 117.576 -6.9966
475.000000 117.601 -6.7111
482.000000 117.553 -6.5308
487.000000 117.560 -6.4618
494.000000 117.555 -6.1471
500.000000 117.551 -5.9103
508.000000 117.563 -5.6362
515.000000 117.547 -5.5367
522.000000 117.527 -5.4204
530.000000 117.549 -5.1209
538.000000 117.522 -4.8460
545.000000 117.527 -4.6140
552.000000 117.523 -4.3653
560.000000 117.513 -4.0683
570.000000 117.497 -3.8007
580.000000 117.476 -3.4952
590.000000 117.483 -3.1225
600.000000 117.446 -2.8451
608.000000 117.464 -2.6865
615.000000 117.453 -2.3758
622.000000 117.433 -2.2054
630.000000 117.436 -1.9536
640.000000 117.423 -1.5478
650.000000 117.395 -1.2424
660.000000 117.409 -0.9504
670.000000 117.387 -0.7539
680.000000 117.376 -0.4225
690.000000 117.346 -0.1616
700.000000 117.371 0.1820
710.000000 117.357 0.5918
720.000000 117.338 0.9284
730.000000 117.348 1.2334
740.000000 117.325 1.6350
750.000000 117.314 2.0007
762.000000 117.323 2.5198
775.000000 117.319 3.0726
788.000000 117.320 3.3625
800.000000 117.325 3.9022
812.000000 117.317 4.3594
825.000000 117.335 4.8283
838.000000 117.329 5.3959
850.000000 117.372 5.7562
862.000000 117.385 6.3167
875.000000 117.413 6.9229
885.000000 117.437 7.1304
900.000000 117.458 7.7260
912.000000 117.484 8.1991
925.000000 117.506 8.7747
938.000000 117.558 9.1172
950.000000 117.603 9.5509
962.000000 117.637 9.9281
975.000000 117.676 10.4546
988.000000 117.727 10.8784
1000.000000 117.742 11.3332
1015.000000 117.855 11.6782
1030.000000 117.910 11.8513
1044.000000 117.955 12.2749
1060.000000 118.049 12.7689
1075.000000 118.114 12.9011
1090.000000 118.170 13.1618
1106.000000 118.236 13.2787
1120.000000 118.292 13.4452
1138.000000 118.396 13.6628
1150.000000 118.428 13.8586
1172.000000 118.507 14.0047
1180.000000 118.522 14.0281
1206.000000 118.613 14.1986
1220.000000 118.672 14.2135
1241.000000 118.735 14.3447
1250.000000 118.777 14.3436
1265.000000 118.802 14.5498
1280.000000 118.830 14.6242
1315.000000 118.938 14.7924
1320.000000 118.934 14.6366
1340.000000 118.987 14.7232
1360.000000 119.025 14.9094
1380.000000 119.067 15.0597
1400.000000 119.084 15.1667
1430.000000 119.137 15.4774
1450.000000 119.187 15.4768
1475.000000 119.233 15.7583
1500.000000 119.306 15.9967
1525.000000 119.334 16.1040
1550.000000 119.389 16.5060
1575.000000 119.435 16.7317
1600.000000 119.482 17.1471
1625.000000 119.572 17.4542
1650.000000 119.607 17.8074
1675.000000 119.699 18.0997
1700.000000 119.761 18.5289
1725.000000 119.840 18.6825
1750.000000 119.925 19.0611
1775.000000 120.008 19.4481
1800.000000 120.092 19.7448
1825.000000 120.179 20.0985
1850.000000 120.293 20.3150
1875.000000 120.385 20.6157
1900.000000 120.489 20.8574
1925.000000 120.603 21.0890
1950.000000 120.717 21.3587
1975.000000 120.839 21.6223
2000.000000 120.977 21.3460
2030.000000 121.132 21.9542
2060.000000 121.300 22.1346
2090.000000 121.474 22.2229
2120.000000 121.632 22.1623
2140.000000 121.764 22.0643
2180.000000 122.000 21.9636
2200.000000 122.132 21.8202
2240.000000 122.390 21.6294
2270.000000 122.573 21.2057
2300.000000 122.766 20.7992
2330.000000 122.986 20.3719
2360.000000 123.182 19.7665
2400.000000 123.435 18.7610
2430.000000 123.619 17.8441
2470.000000 123.863 16.6587
2500.000000 124.033 15.5940
2540.000000 124.251 13.9299
2580.000000 124.453 12.1003
2620.000000 124.626 10.2244
2650.000000 124.710 8.7062
2690.000000 124.824 6.6543
2720.000000 124.859 5.1260
2760.000000 124.919 3.0890
2800.000000 124.904 0.9635
2850.000000 124.877 -1.4641
2900.000000 124.805 -3.6044
2950.000000 124.676 -5.7379
3000.000000 124.553 -7.5308
3040.000000 124.436 -8.7114
3070.000000 124.323 -9.5970
3110.000000 124.219 -10.6969
3150.000000 124.071 -11.7532
3200.000000 123.930 -12.8015
3250.000000 123.745 -13.7876
3300.000000 123.601 -14.6391
3350.000000 123.445 -15.3618
3400.000000 123.285 -15.9559
3450.000000 123.128 -16.5270
3500.000000 122.998 -17.1270
3550.000000 122.863 -17.6721
3600.000000 122.702 -18.1569
3650.000000 122.576 -18.6520
3700.000000 122.396 -19.1864
3750.000000 122.233 -19.6165
3820.000000 121.985 -20.2163
3870.000000 121.786 -20.4444
3950.000000 121.413 -20.6111
4000.000000 121.154 -20.6229
4060.000000 120.899 -19.8681
4120.000000 120.542 -18.7489
4180.000000 120.210 -16.9686
4250.000000 120.010 -14.0568
4310.000000 119.897 -11.0196
4370.000000 120.021 -8.0438
4440.000000 120.303 -5.4177
4500.000000 120.619 -3.7868
4550.000000 120.923 -3.3573
4620.000000 121.328 -3.5344
4680.000000 121.581 -4.4750
4750.000000 121.828 -5.8718
4820.000000 121.962 -7.7262
4870.000000 121.988 -9.0467
4940.000000 121.929 -11.0022
5000.000000 121.778 -12.5481
5080.000000 121.564 -14.2251
5150.000000 121.273 -15.4023
5220.000000 120.900 -15.5567
5300.000000 120.508 -15.2838
5380.000000 120.134 -13.7121
5450.000000 119.887 -11.9810
5520.000000 119.751 -9.8626
5600.000000 119.647 -7.4184
5700.000000 119.738 -4.5238
5800.000000 119.898 -2.4201
5900.000000 120.099 -1.1858
6000.000000 120.306 -0.1167
6080.000000 120.482 0.1381
6150.000000 120.620 -0.1059
6220.000000 120.692 -0.3917
6300.000000 120.823 -0.9743
6400.000000 120.841 -2.0501
6500.000000 120.807 -2.9108
6600.000000 120.719 -3.9381
6700.000000 120.560 -4.8571
6800.000000 120.312 -5.2177
6900.000000 120.039 -5.2502
7000.000000 119.760 -4.6021
7100.000000 119.511 -4.1913
7200.000000 119.315 -2.8879
7300.000000 119.099 -1.9736
7400.000000 118.954 -0.4958
7500.000000 118.776 1.2700
7620.000000 118.720 3.3549
7750.000000 118.688 5.3982
7880.000000 118.776 7.4936
8000.000000 119.062 9.2306
8120.000000 119.202 10.1495
8250.000000 119.514 10.2297
8380.000000 119.823 9.8253
8500.000000 120.094 8.5757
8620.000000 120.219 6.7191
8750.000000 120.316 4.0636
8850.000000 120.242 1.8139
9000.000000 120.049 -1.3164
9120.000000 119.795 -3.2577
9250.000000 119.444 -4.7305
9380.000000 119.036 -5.8360
9500.000000 118.735 -5.6406
9620.000000 118.439 -5.3863
9750.000000 118.190 -4.4434
9880.000000 118.065 -2.9341
10000.000000 117.921 -1.8459
10150.000000 117.881 -0.4432
10300.000000 118.045 1.4485
10440.000000 118.149 2.2503
10600.000000 118.449 3.0048
10750.000000 118.750 3.0594
10900.000000 119.071 2.4521
11060.000000 119.355 1.6176
11200.000000 119.541 0.1679
11380.000000 119.753 -1.2394
11500.000000 119.834 -2.3920
11720.000000 120.054 -4.0817
11800.000000 120.161 -5.2611
12060.000000 120.368 -8.2007
12200.000000 120.394 -10.1066
12410.000000 120.298 -12.7941
12500.000000 120.232 -13.7525
12650.000000 120.174 -15.4308
12800.000000 120.068 -16.7515
13150.000000 119.674 -19.2987
13200.000000 119.607 -19.9562
13400.000000 119.421 -20.5751
13600.000000 119.260 -22.3331
13800.000000 119.099 -24.4377
14000.000000 118.802 -27.9415
14300.000000 117.854 -34.5980
14500.000000 116.719 -38.5179
14750.000000 114.852 -40.5417
15000.000000 112.833 -38.1342
15250.000000 111.142 -32.3214
15500.000000 109.549 -23.3506
15750.000000 108.153 -10.0879
16000.000000 107.822 0.4901
16250.000000 107.218 14.6320
16500.000000 107.567 25.8852
16750.000000 108.040 33.8925
17000.000000 108.269 41.6529
17250.000000 108.672 46.2549
17500.000000 108.724 53.6068
17750.000000 109.038 57.4189
18000.000000 109.446 61.5229
18250.000000 109.563 63.0014
18500.000000 109.586 64.9742
18750.000000 108.649 67.5105
19000.000000 107.620 69.1786
19250.000000 107.044 74.6433
19500.000000 106.129 82.6879
19750.000000 105.588 87.9294
