* Measurement data measured by REW V5.31.1
* Source: Microphone (USB Sound Device        ), MICROPHONE (Master Volume), L, volume: 0.250
* Format: 256k Log Swept Sine, 1 sweep at -20.0 dBFS with no timing reference
* Dated: Oct 3, 2024 6:10:57 PM
* REW Settings:
*  C-weighting compensation: Off
*  Target level: 75.0 dB
* Note: 
* Measurement: L Origin foam 244
* Smoothing: None
* Frequency Step: 1/48 octave
* Start Frequency: 20.300 Hz
*
* Freq(Hz) SPL(dB) Phase(degrees)
20.299999 127.635 -136.2843
20.600000 127.738 -174.3095
20.900000 127.833 150.7224
21.200001 127.918 115.9252
21.400000 127.963 92.8086
21.799999 128.027 46.6957
22.000000 128.052 23.6814
22.400000 128.104 -22.2269
22.700001 128.144 -56.4650
23.000000 128.173 -90.5039
23.299999 128.186 -124.4088
23.600000 128.185 -158.2433
24.000000 128.176 156.7133
24.299999 128.171 123.0124
24.700001 128.162 78.2301
25.000000 128.150 44.7411
25.400000 128.127 0.1634
25.799999 128.103 -44.3458
26.200001 128.080 -88.7572
26.500000 128.059 -122.0067
26.900000 128.027 -166.3048
27.200001 128.004 160.4749
27.600000 127.984 116.2023
28.000000 127.979 72.0176
28.500000 127.990 16.9973
29.000000 128.005 -37.7411
29.500000 128.008 -92.2294
30.000000 127.995 -146.5946
30.400000 127.986 169.9561
30.700001 127.986 137.4263
31.100000 127.992 94.2032
31.500000 127.993 51.1737
32.000000 127.967 -2.4396
32.500000 127.916 -56.0558
33.000000 127.874 -109.7760
33.500000 127.878 -163.4227
34.000000 127.916 143.3660
34.500000 127.920 90.6561
35.000000 127.855 38.0267
35.500000 127.775 -14.9467
36.000000 127.762 -68.0391
36.500000 127.807 -120.6655
37.000000 127.822 -172.6860
37.500000 127.759 135.4253
38.200001 127.638 62.1731
38.700001 127.638 9.6860
39.500000 127.724 -73.0283
40.000000 127.688 -124.1084
40.599998 127.551 174.1445
41.200001 127.497 111.7485
41.799999 127.576 49.9512
42.500000 127.593 -20.8149
43.099998 127.454 -81.6953
43.700001 127.366 -143.4006
44.400002 127.449 145.1433
45.000000 127.479 85.1479
45.500000 127.380 35.1680
46.200001 127.229 -35.8401
46.799999 127.266 -96.7500
47.500000 127.336 -166.3643
48.200001 127.213 124.3677
48.700001 127.100 74.1931
49.400002 127.118 3.7871
50.000000 127.192 -55.4067
50.799999 127.073 -133.7043
51.500000 126.931 156.6147
52.200001 126.993 87.1003
53.000000 127.025 9.4487
53.799999 126.828 -68.6409
54.500000 126.790 -137.9014
55.200001 126.886 154.0732
56.000000 126.781 77.3330
57.000000 126.612 -20.4707
58.000000 126.727 -116.7764
59.000000 126.523 147.6846
60.000000 126.502 50.6870
60.799999 126.555 -25.0654
61.500000 126.389 -91.3618
62.200001 126.285 -158.8423
63.000000 126.385 124.9868
64.000000 126.254 31.3516
65.000000 126.131 -64.1475
66.000000 126.220 -157.7534
67.000000 125.982 108.7422
68.000000 126.005 14.1318
69.000000 125.983 -78.0581
70.000000 125.770 -171.7393
71.000000 125.883 95.2925
72.000000 125.705 3.6953
73.000000 125.619 -89.7451
74.000000 125.690 179.0015
75.000000 125.441 87.2925
76.199997 125.532 -23.2310
77.500000 125.291 -140.9609
78.800003 125.349 99.9736
80.000000 125.143 -7.7354
81.199997 125.137 -117.2871
82.500000 125.001 126.8770
83.800003 124.958 8.8809
85.000000 124.863 -97.2202
86.199997 124.737 154.4082
87.500000 124.720 39.9736
88.500000 124.525 -49.6670
90.000000 124.574 178.3789
91.199997 124.352 71.6157
92.500000 124.420 -41.9727
93.800003 124.168 -156.6992
95.000000 124.268 98.8979
96.199997 123.995 -5.9932
97.500000 124.106 -119.1079
98.800003 123.816 128.1445
100.000000 123.936 24.1206
101.500000 123.639 -105.2061
103.000000 123.722 126.2900
104.400002 123.474 5.3984
106.000000 123.452 -130.2275
107.500000 123.368 100.5879
109.000000 123.168 -25.7979
110.599998 123.230 -161.8311
112.000000 122.940 79.8936
113.800003 122.949 -70.9795
115.000000 122.796 -172.9111
117.199997 122.607 3.5527
118.000000 122.694 -63.8398
120.599998 122.513 79.7637
122.000000 122.357 -35.0225
124.099998 122.333 151.2861
125.000000 122.107 76.7793
126.500000 122.210 -46.5254
128.000000 121.940 -170.1973
131.500000 121.906 -95.7764
132.000000 121.846 -135.7568
134.000000 121.748 60.8857
136.000000 121.492 -101.3008
138.000000 121.345 98.2744
140.000000 121.352 -62.3457
143.000000 121.096 57.3672
145.000000 121.122 -102.3828
147.500000 120.995 58.5996
150.000000 120.866 -139.5977
152.500000 120.722 22.9414
155.000000 120.567 -173.7676
157.500000 120.442 -9.6406
160.000000 120.301 155.1943
162.500000 120.140 -39.1992
165.000000 120.002 127.1562
167.500000 119.862 -65.7441
170.000000 119.727 102.0566
172.500000 119.611 -89.4590
175.000000 119.504 79.7520
177.500000 119.406 -110.4629
180.000000 119.311 59.9229
182.500000 119.243 -129.0146
185.000000 119.152 42.5762
187.500000 119.095 -145.2061
190.000000 119.038 27.3574
192.500000 118.970 -159.5293
195.000000 118.909 14.3047
197.500000 118.842 -171.3643
200.000000 118.777 3.4043
203.000000 118.653 142.4688
206.000000 118.491 -78.0801
209.000000 118.396 61.7949
212.000000 118.345 -157.6641
214.000000 118.287 57.3945
218.000000 118.323 126.6406
220.000000 118.178 -18.1680
224.000000 118.157 54.3398
227.000000 118.030 -160.9980
230.000000 117.954 -16.1934
233.000000 117.945 129.4629
236.000000 117.936 -83.9043
240.000000 117.859 -6.5996
243.000000 117.782 141.2031
247.000000 117.851 -140.4277
250.000000 117.791 9.3320
254.000000 117.653 89.0312
258.000000 117.616 170.8008
262.000000 117.344 -107.1172
265.000000 117.220 46.8418
269.000000 117.267 133.0449
272.000000 117.344 -72.5918
276.000000 117.448 13.6094
280.000000 117.376 100.5938
285.000000 117.375 121.2051
290.000000 117.381 143.4707
295.000000 117.422 167.0879
300.000000 117.449 -167.9062
304.000000 117.404 -75.4883
307.000000 117.440 85.0586
311.000000 117.368 -179.8145
315.000000 117.426 -84.8945
320.000000 117.435 -54.0234
325.000000 117.364 -22.2109
330.000000 117.385 11.4629
335.000000 117.374 46.2109
340.000000 117.357 82.1094
345.000000 117.358 119.5820
350.000000 117.400 158.1172
355.000000 117.431 -162.2031
360.000000 117.413 -121.1777
365.000000 117.442 -79.1445
370.000000 117.439 -35.9941
375.000000 117.448 8.5117
382.000000 117.385 -71.1641
387.000000 117.393 -23.6738
395.000000 117.403 -161.7793
400.000000 117.407 -111.5312
406.000000 117.401 -122.0430
412.000000 117.466 -130.8418
418.000000 117.440 -137.9277
425.000000 117.468 155.3164
431.000000 117.446 151.5352
437.000000 117.428 148.7500
444.000000 117.460 87.5410
450.000000 117.439 87.9258
455.000000 117.431 149.6875
462.000000 117.465 93.2500
468.000000 117.428 97.7695
475.000000 117.485 44.8750
482.000000 117.433 -6.4258
487.000000 117.439 61.2070
494.000000 117.450 13.4141
500.000000 117.409 24.7695
508.000000 117.414 -77.9297
515.000000 117.423 -120.4805
522.000000 117.461 -161.7695
530.000000 117.432 101.7617
538.000000 117.428 7.3320
545.000000 117.367 -28.8359
552.000000 117.379 -63.0586
560.000000 117.380 -151.6953
570.000000 117.351 10.1719
580.000000 117.374 175.0977
590.000000 117.375 -16.9922
600.000000 117.351 153.7422
608.000000 117.368 76.6250
615.000000 117.325 55.7578
622.000000 117.321 36.3203
630.000000 117.309 -35.8281
640.000000 117.317 146.5078
650.000000 117.311 -28.4062
660.000000 117.304 159.3594
670.000000 117.279 -10.2188
680.000000 117.251 -177.2227
690.000000 117.281 18.6055
700.000000 117.282 -143.1875
710.000000 117.248 57.4219
720.000000 117.251 -99.4102
730.000000 117.234 106.3750
740.000000 117.197 -45.5703
750.000000 117.221 164.6914
762.000000 117.235 -84.0859
775.000000 117.161 -19.0820
788.000000 117.175 49.3633
800.000000 117.204 171.2617
812.000000 117.193 -63.7344
825.000000 117.187 15.3750
838.000000 117.155 98.0664
850.000000 117.162 -126.7812
862.000000 117.203 10.7305
875.000000 117.171 103.4570
885.000000 117.196 -16.9688
900.000000 117.212 -13.5820
912.000000 117.214 136.2266
925.000000 117.254 -118.2656
938.000000 117.241 -9.9023
950.000000 117.254 148.5820
962.000000 117.286 -50.4492
975.000000 117.326 67.1836
988.000000 117.362 -172.4102
1000.000000 117.360 -3.1523
1015.000000 117.401 31.9805
1030.000000 117.469 71.1094
1044.000000 117.492 158.6055
1060.000000 117.561 160.3047
1075.000000 117.597 -149.2578
1090.000000 117.679 -95.4219
1106.000000 117.709 -81.8906
1120.000000 117.784 23.0469
1138.000000 117.857 -43.0156
1150.000000 117.921 155.7500
1172.000000 117.990 -74.2266
1180.000000 118.034 -58.0469
1206.000000 118.133 -88.4922
1220.000000 118.186 37.3125
1241.000000 118.265 -128.2031
1250.000000 118.300 -145.7891
1265.000000 118.368 -52.8203
1280.000000 118.411 43.4766
1315.000000 118.521 39.8906
1320.000000 118.556 -165.1094
1340.000000 118.592 98.5859
1360.000000 118.638 7.6484
1380.000000 118.691 -78.2812
1400.000000 118.746 -159.0391
1430.000000 118.826 89.1484
1450.000000 118.834 20.8125
1475.000000 118.870 122.2578
1500.000000 118.957 -129.1797
1525.000000 118.988 -12.9219
1550.000000 119.025 110.3438
1575.000000 119.060 -119.2500
1600.000000 119.102 18.1875
1625.000000 119.163 162.4531
1650.000000 119.203 -46.5781
1675.000000 119.248 111.1094
1700.000000 119.280 -84.6250
1725.000000 119.356 86.1406
1750.000000 119.396 -96.7188
1775.000000 119.445 86.6328
1800.000000 119.518 -83.8906
1825.000000 119.598 111.7188
1850.000000 119.621 -46.6875
1875.000000 119.708 161.0859
1900.000000 119.792 14.4688
1925.000000 119.858 -126.2969
1950.000000 119.946 98.6172
1975.000000 120.021 -30.8750
2000.000000 120.088 -154.8516
2030.000000 120.216 -80.2344
2060.000000 120.317 1.8203
2090.000000 120.427 91.7734
2120.000000 120.563 -170.6719
2140.000000 120.644 -101.6562
2180.000000 120.805 46.3281
2200.000000 120.908 125.0625
2240.000000 121.102 -67.8828
2270.000000 121.233 65.6719
2300.000000 121.398 -153.8594
2330.000000 121.549 -6.7031
2360.000000 121.713 147.2344
2400.000000 121.938 2.9609
2430.000000 122.089 172.1875
2470.000000 122.298 47.8828
2500.000000 122.489 -127.8203
2540.000000 122.714 127.5391
2580.000000 122.943 33.7656
2620.000000 123.164 -49.0781
2650.000000 123.319 165.5859
2690.000000 123.527 101.0391
2720.000000 123.668 -30.7500
2760.000000 123.879 -77.3125
2800.000000 124.053 -113.9297
2850.000000 124.217 -55.6562
2900.000000 124.396 17.7500
2950.000000 124.495 106.1094
3000.000000 124.573 -150.5625
3040.000000 124.589 -129.3125
3070.000000 124.585 162.6250
3110.000000 124.563 -159.9062
3150.000000 124.542 -113.4531
3200.000000 124.457 47.3594
3250.000000 124.355 -138.0312
3300.000000 124.230 50.4062
3350.000000 124.124 -107.9062
3400.000000 123.974 106.9844
3450.000000 123.845 -24.9375
3500.000000 123.685 -144.1250
3550.000000 123.554 109.3438
3600.000000 123.412 15.4062
3650.000000 123.280 -66.4062
3700.000000 123.135 -136.1250
3750.000000 122.984 166.1406
3820.000000 122.795 32.9375
3870.000000 122.639 2.9688
3950.000000 122.449 50.7969
4000.000000 122.312 50.2344
4060.000000 122.115 -151.9688
4120.000000 121.927 21.3281
4180.000000 121.719 -150.0469
4250.000000 121.426 -150.4375
4310.000000 121.127 71.0469
4370.000000 120.864 -52.5938
4440.000000 120.493 2.2656
4500.000000 120.158 -89.2812
4550.000000 119.955 25.8750
4620.000000 119.690 131.7812
4680.000000 119.626 83.1875
4750.000000 119.693 -136.0312
4820.000000 119.910 21.9531
4870.000000 120.097 -163.3281
4940.000000 120.430 23.6562
5000.000000 120.710 42.6250
5080.000000 121.037 87.0469
5150.000000 121.213 -36.4531
5220.000000 121.279 -143.8438
5300.000000 121.295 -40.6250
5380.000000 121.164 84.0000
5450.000000 120.984 29.9219
5520.000000 120.733 -7.5625
5600.000000 120.392 174.9062
5700.000000 119.949 72.4844
5800.000000 119.563 1.7500
5900.000000 119.342 -38.1094
6000.000000 119.221 -47.6719
6080.000000 119.209 -106.8750
6150.000000 119.221 -8.4062
6220.000000 119.300 103.9844
6300.000000 119.422 94.2500
6400.000000 119.497 -163.0625
6500.000000 119.677 -32.9688
6600.000000 119.804 123.3438
6700.000000 119.887 -53.6250
6800.000000 119.959 155.0000
6900.000000 119.937 29.1250
7000.000000 119.936 -70.8906
7100.000000 119.821 -146.0000
7200.000000 119.724 163.4844
7300.000000 119.575 137.7031
7400.000000 119.376 136.2031
7500.000000 119.156 158.3594
7620.000000 118.886 1.3750
7750.000000 118.635 137.2344
7880.000000 118.405 -46.9844
8000.000000 118.283 -100.5000
8120.000000 118.194 -122.8281
8250.000000 118.061 158.1562
8380.000000 118.095 115.5781
8500.000000 118.118 -169.5938
8620.000000 118.231 -64.9688
8750.000000 118.387 -9.1250
8850.000000 118.565 -53.8438
9000.000000 118.817 -84.6250
9120.000000 119.069 138.0469
9250.000000 119.366 -40.6875
9380.000000 119.583 172.4531
9500.000000 119.698 120.0312
9620.000000 119.781 93.6406
9750.000000 119.780 34.3438
9880.000000 119.690 5.7812
10000.000000 119.495 62.1875
10150.000000 119.174 -11.9375
10300.000000 118.934 -46.5156
10440.000000 118.594 4.5156
10600.000000 118.317 1.1875
10750.000000 118.047 82.4219
10900.000000 117.990 -159.5312
11060.000000 117.864 -41.7812
11200.000000 117.934 -174.7812
11380.000000 118.135 -44.8438
11500.000000 118.316 -49.9062
11720.000000 118.746 55.5938
11800.000000 118.913 -149.6562
12060.000000 119.496 -33.9062
12200.000000 119.718 41.6406
12410.000000 119.962 26.8125
12500.000000 119.993 -114.7969
12650.000000 120.019 34.9375
12800.000000 120.075 -144.3750
13150.000000 119.929 -82.2969
13200.000000 119.883 -111.8125
13400.000000 119.850 165.4531
13600.000000 119.782 135.8281
13800.000000 119.740 156.0312
14000.000000 119.557 -131.7188
14300.000000 119.221 69.9531
14500.000000 118.981 -93.4531
14750.000000 118.721 -139.7812
15000.000000 118.580 -112.4844
15250.000000 118.286 -13.8125
15500.000000 117.577 155.8594
15750.000000 116.496 36.9844
16000.000000 114.885 -11.0781
16250.000000 113.189 13.4062
16500.000000 111.326 108.7656
16750.000000 109.879 -86.3594
17000.000000 108.467 144.3750
17250.000000 107.713 82.7969
17500.000000 106.787 86.8594
17750.000000 106.808 152.9219
18000.000000 106.918 -81.6406
18250.000000 107.040 102.8438
18500.000000 107.064 -13.5312
18750.000000 107.448 -71.5312
19000.000000 107.832 -72.6250
19250.000000 107.658 -17.1562
19500.000000 107.390 97.8906
19750.000000 106.961 -92.9844
