* Measurement data measured by REW V5.31.1
* Source: Microphone (USB Sound Device        ), MICROPHONE (Master Volume), L, volume: 0.250
* Format: 256k Log Swept Sine, 1 sweep at -20.0 dBFS with no timing reference
* Dated: Oct 3, 2024 6:17:11 PM
* REW Settings:
*  C-weighting compensation: Off
*  Target level: 75.0 dB
* Note: 
* Measurement: L Origin foam 247
* Smoothing: None
* Frequency Step: 1/48 octave
* Start Frequency: 20.300 Hz
*
* Freq(Hz) SPL(dB) Phase(degrees)
20.299999 128.030 15.9420
20.600000 128.034 15.2875
20.900000 128.032 14.7029
21.200001 128.031 14.1160
21.400000 128.032 13.7171
21.799999 128.034 12.9012
22.000000 128.036 12.4880
22.400000 128.038 11.6672
22.700001 128.038 11.0720
23.000000 128.038 10.5041
23.299999 128.036 9.9631
23.600000 128.035 9.4425
24.000000 128.034 8.7656
24.299999 128.032 8.2605
24.700001 128.028 7.5854
25.000000 128.023 7.0807
25.400000 128.014 6.4185
25.799999 128.005 5.7761
26.200001 127.996 5.1532
26.500000 127.990 4.6944
26.900000 127.982 4.0882
27.200001 127.976 3.6363
27.600000 127.965 3.0412
28.000000 127.952 2.4633
28.500000 127.935 1.7732
29.000000 127.920 1.1078
29.500000 127.907 0.4392
30.000000 127.895 -0.2516
30.400000 127.881 -0.8123
30.700001 127.869 -1.2268
31.100000 127.852 -1.7582
31.500000 127.835 -2.2608
32.000000 127.816 -2.8598
32.500000 127.801 -3.4479
33.000000 127.783 -4.0353
33.500000 127.761 -4.6135
34.000000 127.735 -5.1710
34.500000 127.707 -5.7091
35.000000 127.681 -6.2389
35.500000 127.656 -6.7722
36.000000 127.631 -7.3131
36.500000 127.605 -7.8553
37.000000 127.577 -8.3833
37.500000 127.549 -8.8850
38.200001 127.512 -9.5587
38.700001 127.488 -10.0479
39.500000 127.443 -10.8461
40.000000 127.411 -11.3169
40.599998 127.376 -11.8416
41.200001 127.347 -12.3652
41.799999 127.318 -12.9146
42.500000 127.278 -13.5476
43.099998 127.240 -14.0471
43.700001 127.203 -14.5334
44.400002 127.160 -15.1274
45.000000 127.120 -15.6382
45.500000 127.086 -16.0310
46.200001 127.043 -16.5318
46.799999 127.007 -16.9565
47.500000 126.962 -17.4698
48.200001 126.916 -17.9962
48.700001 126.885 -18.3897
49.400002 126.840 -18.9338
50.000000 126.797 -19.3043
50.799999 126.756 -19.6952
51.500000 126.728 -20.1921
52.200001 126.674 -20.8307
53.000000 126.593 -21.3887
53.799999 126.543 -21.7954
54.500000 126.505 -22.2462
55.200001 126.446 -22.6947
56.000000 126.380 -23.1161
57.000000 126.320 -23.7463
58.000000 126.247 -24.3576
59.000000 126.174 -24.8171
60.000000 126.105 -25.3589
60.799999 126.044 -25.8247
61.500000 125.991 -26.1858
62.200001 125.943 -26.5195
63.000000 125.887 -26.9220
64.000000 125.811 -27.4442
65.000000 125.734 -27.9303
66.000000 125.662 -28.3837
67.000000 125.592 -28.8422
68.000000 125.518 -29.2661
69.000000 125.446 -29.6664
70.000000 125.371 -30.1003
71.000000 125.298 -30.5013
72.000000 125.227 -30.9127
73.000000 125.146 -31.2962
74.000000 125.071 -31.6283
75.000000 124.999 -32.0141
76.199997 124.900 -32.4125
77.500000 124.809 -32.8181
78.800003 124.712 -33.3382
80.000000 124.617 -33.6528
81.199997 124.545 -34.0164
82.500000 124.435 -34.3886
83.800003 124.344 -34.7020
85.000000 124.242 -35.1467
86.199997 124.156 -35.3710
87.500000 124.051 -35.7160
88.500000 123.985 -35.9010
90.000000 123.878 -36.3614
91.199997 123.775 -36.4675
92.500000 123.698 -36.7644
93.800003 123.574 -37.2125
95.000000 123.487 -37.1513
96.199997 123.418 -37.6798
97.500000 123.320 -37.6256
98.800003 123.238 -37.8908
100.000000 123.141 -38.1956
101.500000 122.927 -38.2597
103.000000 123.013 -38.1795
104.400002 122.836 -38.7974
106.000000 122.603 -39.1637
107.500000 122.570 -38.5301
109.000000 122.501 -38.9363
110.599998 122.383 -39.4319
112.000000 122.330 -39.4898
113.800003 122.088 -38.9548
115.000000 122.007 -39.7171
117.199997 121.974 -39.3710
118.000000 121.895 -39.2138
120.599998 121.680 -39.6120
122.000000 121.615 -39.6346
124.099998 121.443 -39.4929
125.000000 121.409 -39.4789
126.500000 121.302 -39.6003
128.000000 121.202 -39.4932
131.500000 120.988 -39.3844
132.000000 120.964 -39.3501
134.000000 120.833 -39.2474
136.000000 120.709 -39.1515
138.000000 120.586 -38.9281
140.000000 120.482 -38.8526
143.000000 120.281 -38.4077
145.000000 120.212 -38.3352
147.500000 120.072 -38.0850
150.000000 119.939 -37.7434
152.500000 119.802 -37.4267
155.000000 119.681 -37.1500
157.500000 119.560 -36.9069
160.000000 119.439 -36.4083
162.500000 119.340 -36.2046
165.000000 119.223 -35.7012
167.500000 119.123 -35.2457
170.000000 119.016 -34.9149
172.500000 118.906 -34.4717
175.000000 118.827 -34.0817
177.500000 118.749 -33.6441
180.000000 118.652 -33.1478
182.500000 118.574 -32.5961
185.000000 118.452 -32.2769
187.500000 118.423 -31.9280
190.000000 118.340 -30.9111
192.500000 118.239 -31.1042
195.000000 118.287 -30.4964
197.500000 118.085 -29.3553
200.000000 118.057 -30.0111
203.000000 117.945 -27.9057
206.000000 118.058 -28.5994
209.000000 117.747 -27.3736
212.000000 117.927 -27.4743
214.000000 117.770 -27.5935
218.000000 117.725 -26.7630
220.000000 117.724 -26.3517
224.000000 117.678 -26.1060
227.000000 117.618 -25.9300
230.000000 117.537 -25.9915
233.000000 117.451 -26.0835
236.000000 117.242 -26.7561
240.000000 116.528 -25.4703
243.000000 116.390 -20.2106
247.000000 116.911 -17.7502
250.000000 117.068 -17.5666
254.000000 117.156 -17.5131
258.000000 117.233 -17.2369
262.000000 117.239 -16.9212
265.000000 117.243 -16.7547
269.000000 117.249 -16.4031
272.000000 117.252 -16.0238
276.000000 117.275 -15.6503
280.000000 117.249 -15.3685
285.000000 117.240 -14.8984
290.000000 117.258 -14.4304
295.000000 117.309 -13.8381
300.000000 117.321 -13.2372
304.000000 117.201 -12.7897
307.000000 117.289 -13.2752
311.000000 117.241 -12.4890
315.000000 117.333 -12.3387
320.000000 117.284 -11.9430
325.000000 117.282 -11.4255
330.000000 117.282 -11.2449
335.000000 117.283 -10.8294
340.000000 117.286 -10.3075
345.000000 117.312 -10.0944
350.000000 117.315 -9.7307
355.000000 117.339 -9.4335
360.000000 117.334 -9.0880
365.000000 117.322 -8.8473
370.000000 117.340 -8.5987
375.000000 117.338 -8.3482
382.000000 117.363 -8.0291
387.000000 117.373 -7.9237
395.000000 117.371 -7.5624
400.000000 117.355 -7.2429
406.000000 117.386 -7.0848
412.000000 117.368 -6.7515
418.000000 117.406 -6.5038
425.000000 117.408 -6.2522
431.000000 117.404 -6.1139
437.000000 117.412 -5.9487
444.000000 117.421 -5.6355
450.000000 117.424 -5.4340
455.000000 117.429 -5.1580
462.000000 117.427 -5.0537
468.000000 117.423 -4.8768
475.000000 117.429 -4.6068
482.000000 117.439 -4.5914
487.000000 117.442 -4.3373
494.000000 117.455 -4.0682
500.000000 117.439 -4.1548
508.000000 117.438 -3.8313
515.000000 117.442 -3.6322
522.000000 117.445 -3.4499
530.000000 117.431 -3.2467
538.000000 117.431 -3.0908
545.000000 117.425 -2.9814
552.000000 117.445 -2.8572
560.000000 117.439 -2.6679
570.000000 117.398 -2.4668
580.000000 117.402 -2.3154
590.000000 117.407 -2.1738
600.000000 117.343 -1.8431
608.000000 117.331 -1.5902
615.000000 117.356 -1.2771
622.000000 117.334 -1.2279
630.000000 117.333 -0.9588
640.000000 117.291 -0.7770
650.000000 117.272 -0.5072
660.000000 117.271 -0.1836
670.000000 117.266 0.0875
680.000000 117.243 0.2049
690.000000 117.190 0.6679
700.000000 117.252 1.0052
710.000000 117.199 1.4004
720.000000 117.189 1.7305
730.000000 117.174 1.9547
740.000000 117.146 2.4910
750.000000 117.152 2.7494
762.000000 117.153 3.3418
775.000000 117.151 3.7062
788.000000 117.144 4.1811
800.000000 117.147 4.6836
812.000000 117.137 5.0898
825.000000 117.150 5.6339
838.000000 117.155 6.3586
850.000000 117.167 6.6959
862.000000 117.185 7.0343
875.000000 117.202 7.7261
885.000000 117.224 8.2211
900.000000 117.255 8.7524
912.000000 117.291 9.0387
925.000000 117.318 9.6727
938.000000 117.375 10.1582
950.000000 117.400 10.4532
962.000000 117.417 10.8697
975.000000 117.475 11.1967
988.000000 117.509 11.5283
1000.000000 117.521 12.4069
1015.000000 117.620 12.3723
1030.000000 117.679 12.7707
1044.000000 117.778 13.0325
1060.000000 117.825 13.4548
1075.000000 117.894 13.8308
1090.000000 117.959 13.7636
1106.000000 118.010 14.1849
1120.000000 118.085 14.3250
1138.000000 118.146 14.4397
1150.000000 118.207 14.7038
1172.000000 118.250 14.7585
1180.000000 118.317 14.8622
1206.000000 118.380 14.9521
1220.000000 118.432 15.1614
1241.000000 118.471 15.2366
1250.000000 118.512 15.3207
1265.000000 118.554 15.4022
1280.000000 118.591 15.5936
1315.000000 118.661 15.7906
1320.000000 118.682 15.8174
1340.000000 118.720 15.9843
1360.000000 118.743 16.0017
1380.000000 118.813 16.1853
1400.000000 118.843 16.4201
1430.000000 118.900 16.5064
1450.000000 118.933 17.0214
1475.000000 118.992 17.1193
1500.000000 119.035 17.4979
1525.000000 119.073 17.6986
1550.000000 119.141 18.0386
1575.000000 119.192 18.1984
1600.000000 119.257 18.7054
1625.000000 119.311 18.9919
1650.000000 119.408 19.4162
1675.000000 119.478 19.7696
1700.000000 119.550 20.1372
1725.000000 119.642 20.5965
1750.000000 119.722 20.8955
1775.000000 119.808 21.0004
1800.000000 119.896 21.5447
1825.000000 119.987 21.8482
1850.000000 120.114 22.1203
1875.000000 120.202 22.3005
1900.000000 120.350 22.6714
1925.000000 120.444 22.7859
1950.000000 120.575 23.0331
1975.000000 120.681 23.2391
2000.000000 120.861 23.1828
2030.000000 120.979 23.6973
2060.000000 121.158 23.6832
2090.000000 121.310 23.7827
2120.000000 121.473 23.6392
2140.000000 121.605 23.7212
2180.000000 121.840 23.5645
2200.000000 121.971 23.5082
2240.000000 122.220 23.0820
2270.000000 122.417 22.7559
2300.000000 122.607 22.3035
2330.000000 122.789 21.7683
2360.000000 122.995 21.1511
2400.000000 123.238 20.2118
2430.000000 123.414 19.3780
2470.000000 123.653 18.2462
2500.000000 123.812 17.1299
2540.000000 124.033 15.4896
2580.000000 124.220 13.8995
2620.000000 124.365 12.1313
2650.000000 124.479 10.7562
2690.000000 124.565 8.7901
2720.000000 124.628 7.2217
2760.000000 124.671 5.3515
2800.000000 124.683 3.3314
2850.000000 124.668 1.1224
2900.000000 124.606 -1.0793
2950.000000 124.518 -3.0170
3000.000000 124.404 -4.6367
3040.000000 124.312 -5.9605
3070.000000 124.211 -6.8514
3110.000000 124.118 -7.9714
3150.000000 124.000 -8.9836
3200.000000 123.852 -9.9482
3250.000000 123.715 -10.9049
3300.000000 123.583 -11.8418
3350.000000 123.431 -12.6690
3400.000000 123.278 -13.2633
3450.000000 123.135 -14.0515
3500.000000 123.013 -14.7029
3550.000000 122.889 -15.2518
3600.000000 122.742 -15.7083
3650.000000 122.638 -16.3447
3700.000000 122.478 -16.9816
3750.000000 122.288 -17.4641
3820.000000 122.063 -18.1395
3870.000000 121.839 -18.4390
3950.000000 121.481 -18.9007
4000.000000 121.174 -18.5815
4060.000000 120.885 -18.0077
4120.000000 120.526 -16.8908
4180.000000 120.270 -14.9950
4250.000000 120.079 -11.9063
4310.000000 120.049 -9.1718
4370.000000 120.190 -6.4058
4440.000000 120.462 -4.0716
4500.000000 120.781 -3.0134
4550.000000 121.046 -2.7855
4620.000000 121.391 -3.0603
4680.000000 121.635 -4.1437
4750.000000 121.823 -5.6608
4820.000000 121.880 -7.7874
4870.000000 121.887 -9.0921
4940.000000 121.761 -11.0515
5000.000000 121.521 -12.5348
5080.000000 121.213 -13.6175
5150.000000 120.887 -13.9351
5220.000000 120.520 -13.3451
5300.000000 120.157 -12.0388
5380.000000 119.855 -9.8281
5450.000000 119.693 -7.7449
5520.000000 119.691 -5.5966
5600.000000 119.715 -3.3817
5700.000000 119.887 -1.0562
5800.000000 120.050 0.5952
5900.000000 120.325 1.6123
6000.000000 120.522 2.1052
6080.000000 120.671 2.1054
6150.000000 120.827 1.8562
6220.000000 120.903 1.5798
6300.000000 120.998 1.0488
6400.000000 121.028 0.2289
6500.000000 121.055 -0.6364
6600.000000 120.967 -1.5440
6700.000000 120.892 -2.2262
6800.000000 120.719 -2.7920
6900.000000 120.599 -2.7277
7000.000000 120.409 -2.3612
7100.000000 120.252 -2.4400
7200.000000 120.089 -2.1371
7300.000000 120.020 -1.4375
7400.000000 119.943 -0.6744
7500.000000 119.953 -0.1869
7620.000000 119.945 -0.0552
7750.000000 119.964 -0.4075
7880.000000 120.007 -0.6031
8000.000000 119.953 -1.1110
8120.000000 119.990 -2.2401
8250.000000 119.975 -3.4812
8380.000000 119.832 -5.2350
8500.000000 119.657 -6.9153
8620.000000 119.364 -8.3906
8750.000000 119.075 -9.7176
8850.000000 118.783 -10.1521
9000.000000 118.346 -11.3237
9120.000000 118.004 -10.5344
9250.000000 117.711 -10.0934
9380.000000 117.427 -9.2791
9500.000000 117.185 -7.9945
9620.000000 117.076 -7.0026
9750.000000 116.884 -5.2728
9880.000000 116.925 -3.5160
10000.000000 117.026 -2.1460
10150.000000 117.185 -1.0641
10300.000000 117.442 0.3591
10440.000000 117.721 0.4659
10600.000000 118.042 0.2332
10750.000000 118.356 -0.7026
10900.000000 118.626 -2.8844
11060.000000 118.783 -4.2199
11200.000000 118.885 -5.8113
11380.000000 118.990 -7.9274
11500.000000 118.928 -9.2909
11720.000000 118.874 -11.6190
11800.000000 118.826 -11.7582
12060.000000 118.568 -12.3004
12200.000000 118.622 -11.5681
12410.000000 118.723 -10.9492
12500.000000 118.845 -10.8695
12650.000000 119.048 -11.3901
12800.000000 119.194 -12.7381
13150.000000 119.464 -16.1329
13200.000000 119.445 -16.8149
13400.000000 119.490 -20.6444
13600.000000 119.433 -24.9930
13800.000000 119.031 -31.0181
14000.000000 118.144 -37.3337
14300.000000 116.060 -43.2208
14500.000000 114.320 -43.8912
14750.000000 112.292 -40.4948
15000.000000 110.381 -33.3962
15250.000000 108.961 -23.0537
15500.000000 107.698 -11.1080
15750.000000 106.701 -0.4889
16000.000000 106.588 14.0352
16250.000000 106.580 27.6489
16500.000000 107.070 37.8661
16750.000000 107.962 45.2644
17000.000000 108.144 51.9286
17250.000000 109.082 56.5114
17500.000000 109.663 59.8460
17750.000000 109.526 61.2460
18000.000000 109.383 62.6801
18250.000000 109.297 66.2168
18500.000000 108.830 70.5595
18750.000000 108.122 72.8220
19000.000000 107.498 78.2993
19250.000000 106.815 81.8140
19500.000000 106.109 87.0690
19750.000000 105.565 93.9120
