* Measurement data measured by REW V5.31.1
* Source: Microphone (USB Sound Device        ), MICROPHONE (Master Volume), L, volume: 0.250
* Format: 256k Log Swept Sine, 1 sweep at -20.0 dBFS with no timing reference
* Dated: Oct 24, 2024 1:49:24 PM
* REW Settings:
*  C-weighting compensation: Off
*  Target level: 75.0 dB
* Note: 
* Measurement: R Q1 PRO 331
* Smoothing: None
* Frequency Step: 1/48 octave
* Start Frequency: 20.300 Hz
*
* Freq(Hz) SPL(dB) Phase(degrees)
20.299999 123.654 -152.2339
20.600000 123.670 -152.9705
20.900000 123.681 -153.6306
21.200001 123.691 -154.2831
21.400000 123.699 -154.7167
21.799999 123.717 -155.5792
22.000000 123.726 -156.0057
22.400000 123.744 -156.8406
22.700001 123.756 -157.4443
23.000000 123.766 -158.0258
23.299999 123.774 -158.5866
23.600000 123.779 -159.1299
24.000000 123.784 -159.8334
24.299999 123.787 -160.3501
24.700001 123.792 -161.0296
25.000000 123.797 -161.5350
25.400000 123.805 -162.2051
25.799999 123.813 -162.8685
26.200001 123.820 -163.5167
26.500000 123.823 -163.9871
26.900000 123.825 -164.5897
27.200001 123.825 -165.0253
27.600000 123.824 -165.5920
28.000000 123.823 -166.1532
28.500000 123.822 -166.8570
29.000000 123.822 -167.5631
29.500000 123.822 -168.2648
30.000000 123.819 -168.9490
30.400000 123.813 -169.4705
30.700001 123.806 -169.8406
31.100000 123.797 -170.3073
31.500000 123.789 -170.7573
32.000000 123.783 -171.3302
32.500000 123.776 -171.9366
33.000000 123.766 -172.5517
33.500000 123.750 -173.1264
34.000000 123.735 -173.6376
34.500000 123.724 -174.1115
35.000000 123.715 -174.5893
35.500000 123.704 -175.0925
36.000000 123.689 -175.6154
36.500000 123.672 -176.1430
37.000000 123.654 -176.6575
37.500000 123.639 -177.1403
38.200001 123.622 -177.7509
38.700001 123.612 -178.1618
39.500000 123.586 -178.8162
40.000000 123.563 -179.2077
40.599998 123.537 -179.6535
41.200001 123.517 179.8840
41.799999 123.500 179.3820
42.500000 123.473 178.8030
43.099998 123.446 178.3532
43.700001 123.420 177.9185
44.400002 123.390 177.4101
45.000000 123.367 176.9959
45.500000 123.351 176.6628
46.200001 123.330 176.1840
46.799999 123.304 175.7786
47.500000 123.267 175.3591
48.200001 123.235 174.9579
48.700001 123.216 174.6510
49.400002 123.188 174.2274
50.000000 123.164 173.9116
50.799999 123.135 173.5101
51.500000 123.106 173.1143
52.200001 123.070 172.7008
53.000000 123.027 172.2634
53.799999 122.988 171.8860
54.500000 122.959 171.5898
55.200001 122.934 171.2705
56.000000 122.900 170.8460
57.000000 122.843 170.3516
58.000000 122.794 169.9385
59.000000 122.750 169.4400
60.000000 122.694 169.0002
60.799999 122.660 168.7502
61.500000 122.634 168.5148
62.200001 122.603 168.2558
63.000000 122.564 167.9524
64.000000 122.516 167.5489
65.000000 122.469 167.2139
66.000000 122.431 166.8868
67.000000 122.382 166.4796
68.000000 122.321 166.1928
69.000000 122.279 165.9867
70.000000 122.237 165.6467
71.000000 122.184 165.3501
72.000000 122.148 165.0630
73.000000 122.095 164.7487
74.000000 122.043 164.6064
75.000000 122.012 164.3518
76.199997 121.951 164.0115
77.500000 121.895 163.7538
78.800003 121.838 163.3818
80.000000 121.778 163.2070
81.199997 121.737 162.9774
82.500000 121.666 162.6220
83.800003 121.616 162.4129
85.000000 121.553 162.1943
86.199997 121.495 162.0871
87.500000 121.446 161.7831
88.500000 121.396 161.6363
90.000000 121.336 161.4469
91.199997 121.289 161.2817
92.500000 121.245 161.0972
93.800003 121.185 160.8944
95.000000 121.135 160.7993
96.199997 121.098 160.6302
97.500000 121.038 160.4858
98.800003 120.974 160.3473
100.000000 120.930 160.2343
101.500000 120.885 160.0498
103.000000 120.815 159.9776
104.400002 120.755 159.8831
106.000000 120.708 159.7609
107.500000 120.645 159.6460
109.000000 120.568 159.5102
110.599998 120.532 159.3795
112.000000 120.466 159.3677
113.800003 120.395 159.1733
115.000000 120.353 159.1392
117.199997 120.289 159.1082
118.000000 120.257 159.0724
120.599998 120.167 159.0577
122.000000 120.114 158.9399
124.099998 120.044 158.8799
125.000000 120.015 158.8646
126.500000 119.961 158.8738
128.000000 119.928 158.8160
131.500000 119.812 158.6641
132.000000 119.790 158.6342
134.000000 119.738 158.7977
136.000000 119.659 158.7359
138.000000 119.640 158.7430
140.000000 119.546 158.8174
143.000000 119.462 158.8540
145.000000 119.411 158.8214
147.500000 119.332 158.8970
150.000000 119.262 158.8404
152.500000 119.195 158.9593
155.000000 119.140 159.0214
157.500000 119.069 159.0985
160.000000 119.013 159.1412
162.500000 118.935 159.2636
165.000000 118.882 159.3032
167.500000 118.825 159.4023
170.000000 118.766 159.5782
172.500000 118.704 159.6251
175.000000 118.653 159.8536
177.500000 118.583 159.8185
180.000000 118.542 159.9940
182.500000 118.484 160.0301
185.000000 118.435 160.2561
187.500000 118.377 160.2539
190.000000 118.337 160.4709
192.500000 118.282 160.5863
195.000000 118.227 160.7677
197.500000 118.200 160.9318
200.000000 118.132 161.0717
203.000000 118.095 161.2285
206.000000 118.057 161.3163
209.000000 118.024 161.3466
212.000000 117.976 161.6058
214.000000 117.909 162.0894
218.000000 117.839 162.0833
220.000000 117.804 162.1777
224.000000 117.742 162.5833
227.000000 117.712 162.6858
230.000000 117.646 163.0025
233.000000 117.594 163.0192
236.000000 117.582 163.1476
240.000000 117.518 163.4438
243.000000 117.461 163.7813
247.000000 117.429 164.1190
250.000000 117.380 164.2186
254.000000 117.340 164.4913
258.000000 117.287 164.5765
262.000000 117.235 164.9806
265.000000 117.193 165.1826
269.000000 117.153 165.5222
272.000000 117.124 165.6710
276.000000 117.087 165.9646
280.000000 117.045 166.3301
285.000000 116.993 166.5208
290.000000 116.936 166.7981
295.000000 116.903 167.2503
300.000000 116.842 167.6144
304.000000 116.811 167.8167
307.000000 116.771 168.1316
311.000000 116.740 168.2744
315.000000 116.710 168.6419
320.000000 116.682 169.0016
325.000000 116.637 169.3096
330.000000 116.598 169.6752
335.000000 116.563 170.1065
340.000000 116.523 170.4004
345.000000 116.485 170.6105
350.000000 116.457 171.0395
355.000000 116.431 171.3672
360.000000 116.378 171.6326
365.000000 116.375 171.9727
370.000000 116.344 172.4142
375.000000 116.305 172.6319
382.000000 116.279 173.1261
387.000000 116.243 173.4480
395.000000 116.188 174.0985
400.000000 116.153 174.4067
406.000000 116.129 174.7594
412.000000 116.104 175.2091
418.000000 116.073 175.5836
425.000000 116.055 176.1100
431.000000 116.039 176.4521
437.000000 116.016 176.8235
444.000000 115.963 177.3283
450.000000 115.960 177.6727
455.000000 115.954 177.9707
462.000000 115.900 178.4864
468.000000 115.876 178.8438
475.000000 115.892 179.3623
482.000000 115.837 179.7643
487.000000 115.842 -179.9063
494.000000 115.821 -179.5120
500.000000 115.823 -179.0875
508.000000 115.781 -178.5464
515.000000 115.781 -178.0668
522.000000 115.761 -177.7385
530.000000 115.726 -177.3556
538.000000 115.706 -176.4936
545.000000 115.687 -176.1963
552.000000 115.680 -175.7897
560.000000 115.705 -175.1604
570.000000 115.662 -174.4480
580.000000 115.631 -173.9597
590.000000 115.639 -173.2615
600.000000 115.651 -172.6636
608.000000 115.628 -172.1960
615.000000 115.624 -171.6752
622.000000 115.608 -171.1350
630.000000 115.603 -170.5825
640.000000 115.601 -170.2267
650.000000 115.578 -169.4020
660.000000 115.589 -169.0480
670.000000 115.594 -168.1370
680.000000 115.601 -167.5189
690.000000 115.611 -166.8555
700.000000 115.588 -166.2237
710.000000 115.602 -165.4544
720.000000 115.607 -164.8659
730.000000 115.610 -164.1064
740.000000 115.599 -163.6563
750.000000 115.627 -162.9507
762.000000 115.588 -162.0068
775.000000 115.570 -160.9861
788.000000 115.512 -159.7111
800.000000 115.539 -157.8620
812.000000 115.753 -155.5708
825.000000 116.089 -155.2652
838.000000 116.217 -155.3748
850.000000 116.288 -155.1923
862.000000 116.319 -154.9614
875.000000 116.427 -154.2745
885.000000 116.450 -153.9745
900.000000 116.549 -153.5487
912.000000 116.644 -153.1058
925.000000 116.734 -152.8087
938.000000 116.819 -152.6382
950.000000 116.884 -152.4493
962.000000 116.947 -152.6707
975.000000 116.852 -153.0203
988.000000 116.755 -152.5412
1000.000000 116.658 -151.9387
1015.000000 116.694 -149.7728
1030.000000 116.807 -148.2928
1044.000000 116.953 -147.2278
1060.000000 117.100 -146.4832
1075.000000 117.252 -145.8164
1090.000000 117.388 -145.2491
1106.000000 117.516 -144.6998
1120.000000 117.660 -144.3882
1138.000000 117.776 -144.0214
1150.000000 117.879 -143.8554
1172.000000 118.032 -143.3592
1180.000000 118.108 -143.1411
1206.000000 118.276 -142.9208
1220.000000 118.364 -142.6958
1241.000000 118.498 -142.4467
1250.000000 118.556 -142.3048
1265.000000 118.650 -142.1090
1280.000000 118.726 -142.1036
1315.000000 118.960 -141.7545
1320.000000 118.990 -141.6035
1340.000000 119.096 -141.4957
1360.000000 119.201 -141.3427
1380.000000 119.295 -141.2923
1400.000000 119.389 -141.1568
1430.000000 119.537 -140.9178
1450.000000 119.651 -140.8835
1475.000000 119.766 -140.7959
1500.000000 119.887 -140.7479
1525.000000 119.991 -140.6559
1550.000000 120.110 -140.4210
1575.000000 120.192 -140.3978
1600.000000 120.306 -140.2708
1625.000000 120.425 -140.1255
1650.000000 120.528 -140.0797
1675.000000 120.636 -140.0798
1700.000000 120.734 -140.0508
1725.000000 120.847 -139.8200
1750.000000 120.930 -139.7124
1775.000000 121.035 -139.7433
1800.000000 121.136 -139.7014
1825.000000 121.247 -139.6911
1850.000000 121.340 -139.6262
1875.000000 121.443 -139.5807
1900.000000 121.552 -139.5771
1925.000000 121.650 -139.5769
1950.000000 121.765 -139.6270
1975.000000 121.880 -139.6945
2000.000000 121.971 -139.3769
2030.000000 122.105 -139.8213
2060.000000 122.243 -139.9407
2090.000000 122.367 -140.1179
2120.000000 122.484 -140.2487
2140.000000 122.562 -140.4753
2180.000000 122.733 -140.6418
2200.000000 122.794 -140.8499
2240.000000 122.976 -141.2761
2270.000000 123.092 -141.4818
2300.000000 123.205 -141.7852
2330.000000 123.329 -142.2988
2360.000000 123.435 -142.5688
2400.000000 123.577 -143.2058
2430.000000 123.684 -143.5766
2470.000000 123.819 -144.1805
2500.000000 123.916 -144.6736
2540.000000 124.037 -145.3311
2580.000000 124.152 -146.0642
2620.000000 124.269 -146.7656
2650.000000 124.344 -147.2104
2690.000000 124.448 -148.0722
2720.000000 124.512 -148.6935
2760.000000 124.599 -149.4205
2800.000000 124.671 -150.0984
2850.000000 124.773 -151.2902
2900.000000 124.849 -152.2496
2950.000000 124.916 -153.1586
3000.000000 124.990 -154.2702
3040.000000 125.038 -154.9063
3070.000000 125.075 -155.5070
3110.000000 125.104 -156.2560
3150.000000 125.153 -156.9534
3200.000000 125.178 -157.9011
3250.000000 125.209 -158.8245
3300.000000 125.230 -159.5760
3350.000000 125.269 -160.5035
3400.000000 125.280 -161.4091
3450.000000 125.280 -162.2511
3500.000000 125.291 -163.0804
3550.000000 125.281 -163.8687
3600.000000 125.193 -164.7895
3650.000000 125.084 -164.7902
3700.000000 125.184 -164.0529
3750.000000 125.345 -164.8388
3820.000000 125.427 -165.9984
3870.000000 125.477 -166.7809
3950.000000 125.507 -168.1284
4000.000000 125.543 -168.8278
4060.000000 125.568 -169.7892
4120.000000 125.602 -170.7145
4180.000000 125.623 -171.6453
4250.000000 125.634 -172.6656
4310.000000 125.656 -173.7332
4370.000000 125.677 -174.7539
4440.000000 125.682 -176.1745
4500.000000 125.693 -177.2255
4550.000000 125.674 -178.2148
4620.000000 125.665 -179.4901
4680.000000 125.621 179.1772
4750.000000 125.564 177.7577
4820.000000 125.495 176.2820
4870.000000 125.421 175.2000
4940.000000 125.307 173.6917
5000.000000 125.193 172.3836
5080.000000 125.011 170.9915
5150.000000 124.838 169.6777
5220.000000 124.649 168.5575
5300.000000 124.392 167.2721
5380.000000 124.124 166.4438
5450.000000 123.881 165.5748
5520.000000 123.637 164.9010
5600.000000 123.330 164.4442
5700.000000 122.927 163.9944
5800.000000 122.528 164.0976
5900.000000 122.074 164.6053
6000.000000 121.710 165.8202
6080.000000 121.530 166.6956
6150.000000 121.345 167.2169
6220.000000 121.141 167.4940
6300.000000 120.895 168.2963
6400.000000 120.598 169.7417
6500.000000 120.322 170.9639
6600.000000 120.104 172.6213
6700.000000 119.870 174.3900
6800.000000 119.684 175.9981
6900.000000 119.504 177.9471
7000.000000 119.358 179.8047
7100.000000 119.265 -178.0432
7200.000000 119.163 -176.1573
7300.000000 119.179 -174.3015
7400.000000 119.152 -172.4205
7500.000000 119.170 -170.4692
7620.000000 119.263 -168.4583
7750.000000 119.407 -166.1874
7880.000000 119.554 -164.2092
8000.000000 119.659 -163.2319
8120.000000 120.053 -161.5742
8250.000000 120.381 -161.0086
8380.000000 120.790 -160.8109
8500.000000 121.127 -161.1362
8620.000000 121.500 -162.3742
8750.000000 121.810 -164.2993
8850.000000 122.079 -166.1085
9000.000000 122.307 -170.5686
9120.000000 122.303 -173.9917
9250.000000 122.155 -177.9933
9380.000000 121.885 178.1013
9500.000000 121.454 175.4727
9620.000000 121.037 173.1196
9750.000000 120.403 171.7889
9880.000000 119.917 170.9629
10000.000000 119.419 170.8812
10150.000000 118.779 171.9521
10300.000000 118.309 172.7576
10440.000000 117.896 175.2409
10600.000000 117.562 177.7097
10750.000000 117.328 -179.4169
10900.000000 117.194 -175.9732
11060.000000 117.231 -172.8391
11200.000000 117.311 -169.9664
11380.000000 117.572 -166.6397
11500.000000 117.825 -164.5611
11720.000000 118.449 -160.7250
11800.000000 118.828 -160.0098
12060.000000 120.335 -158.5094
12200.000000 121.313 -160.1323
12410.000000 123.074 -167.3951
12500.000000 123.823 -173.0551
12650.000000 124.651 172.9839
12800.000000 124.350 155.7731
13150.000000 120.402 130.3585
13200.000000 119.802 128.7836
13400.000000 117.318 125.7489
13600.000000 115.243 126.3514
13800.000000 113.439 129.2541
14000.000000 111.896 132.4421
14300.000000 109.896 139.0007
14500.000000 108.926 144.0054
14750.000000 107.843 150.9069
15000.000000 106.856 157.6045
15250.000000 105.921 163.7399
15500.000000 105.009 168.0035
15750.000000 104.734 175.8309
16000.000000 104.637 -178.3112
16250.000000 104.734 -171.2258
16500.000000 104.828 -166.4507
16750.000000 105.216 -164.0825
17000.000000 105.104 -164.4317
17250.000000 105.201 -166.6274
17500.000000 104.660 -168.9914
17750.000000 104.151 -169.5810
18000.000000 103.580 -167.1038
18250.000000 102.711 -167.1559
18500.000000 101.750 -165.9148
18750.000000 100.654 -162.7758
19000.000000 100.174 -161.3858
19250.000000 98.744 -159.8108
19500.000000 98.318 -155.2589
19750.000000 97.248 -153.1570
